Timestamp,Roll,Pitch,Yaw,AccX,AccY,AccZ,GyroX,GyroY,GyroZ
1766237878619,-10.57,16.44,-119.81,-501.719,-282.715,971.299,9.91,40.21,-235.76
1766237878622,-17.07,18.31,-134.23,-551.035,-359.375,924.424,-1.40,50.27,-252.69
1766237878625,-22.74,16.72,-148.78,-365.488,-346.191,892.197,-7.77,57.02,-268.88
1766237878632,-3.69,0.45,177.02,-178.477,-491.699,1135.361,22.79,1.02,86.49
1766237878642,-5.53,2.58,-178.82,-146.250,-352.051,1156.357,17.79,6.84,88.99
1766237878652,-5.70,3.89,-174.84,-82.285,-198.242,1125.596,11.73,11.84,85.43
1766237878662,-5.99,8.12,-171.06,-328.867,-208.984,1090.928,7.60,23.34,83.18
1766237878672,-6.11,14.66,-167.17,-636.973,-251.953,1173.447,5.04,40.02,88.68
1766237878682,-5.17,20.54,-163.06,-690.684,-190.430,1245.225,3.29,52.46,90.43
1766237878692,-4.65,24.75,-159.14,-573.984,-239.746,1250.107,0.54,63.84,90.37
1766237878702,-2.34,26.06,-154.71,-319.590,-57.617,1242.783,0.60,69.59,85.68
1766237878712,0.02,25.10,-150.52,-114.023,3.418,1225.693,1.35,70.77,77.68
1766237878722,0.99,24.33,-147.10,-115.488,-51.270,1196.396,0.29,71.40,70.12
1766237878732,1.03,25.07,-144.21,-240.488,-101.074,1139.756,-0.65,71.59,64.74
1766237878742,1.51,23.84,-141.41,-75.938,-39.551,1173.447,-2.34,69.71,57.93
1766237878752,1.37,25.93,-138.81,-388.926,-84.473,1177.354,-4.40,70.02,57.68
1766237878762,1.64,26.45,-135.89,-257.090,-34.180,1183.213,-9.71,73.46,58.99
1766237878772,3.06,25.54,-132.67,-142.832,79.590,1215.928,-8.27,71.02,54.93
1766237878782,3.70,26.26,-129.57,-276.621,41.016,1205.674,-10.71,75.15,56.62
1766237878792,4.83,24.34,-126.66,-31.504,109.375,1136.826,-9.65,71.77,47.74
1766237878802,4.39,23.93,-124.48,-135.508,20.508,1071.885,-13.09,70.96,42.87
1766237878812,3.71,24.52,-122.32,-188.242,7.812,978.135,-17.34,73.52,42.87
1766237878822,3.64,21.89,-120.33,50.527,64.453,939.561,-18.90,67.09,34.18
1766237878832,3.19,20.67,-118.50,-36.387,66.406,1021.104,-23.77,64.21,31.49
1766237878842,2.78,19.91,-116.49,-58.359,72.266,1032.822,-26.77,63.34,34.93
1766237878852,3.29,17.62,-114.29,79.824,142.090,1036.729,-25.40,60.02,33.68
1766237878862,3.87,14.23,-112.51,195.059,171.875,1058.701,-22.90,51.77,26.18
1766237878872,3.52,13.54,-110.87,-6.602,111.328,1079.697,-24.34,49.46,27.74
1766237878882,4.04,11.41,-108.92,129.141,197.754,1110.459,-26.40,45.96,30.93
1766237878892,5.56,7.15,-107.22,361.562,334.473,1181.260,-23.02,33.21,25.81
1766237878902,6.54,4.61,-105.64,199.941,308.594,1199.326,-21.52,22.15,26.93
1766237878912,6.01,3.80,-103.98,51.016,183.105,1245.713,-21.71,17.90,32.31
1766237878922,5.02,1.48,-102.50,177.480,96.680,1220.811,-15.84,8.21,30.87
1766237878932,2.27,0.45,-101.02,80.801,-122.559,1136.338,-8.77,5.02,32.06
1766237878942,0.22,-1.63,-99.93,177.480,-150.391,1249.619,-2.34,-4.91,23.31
1766237878952,-2.11,-1.35,-99.08,-8.555,-248.535,1305.283,0.54,-3.48,17.06
1766237878962,-3.02,-2.19,-99.12,91.543,-175.293,1254.014,7.16,-4.79,-1.76
1766237878972,-4.12,0.74,-100.32,-258.555,-231.934,1234.482,10.23,1.21,-24.57
1766237878982,-4.53,3.93,-102.96,-287.852,-172.852,1261.338,9.98,16.90,-51.76
1766237878992,-5.89,9.09,-107.11,-473.398,-216.309,1189.561,5.98,37.77,-76.19
1766237879003,-6.15,11.58,-112.56,-240.000,-54.199,1210.068,-0.09,53.90,-105.82
1766237879012,-5.73,10.74,-119.96,39.785,50.293,1153.916,-1.65,57.71,-149.13
1766237879022,-5.74,10.77,-129.60,-39.316,52.734,1129.502,-2.15,58.21,-192.69
1766237879032,-5.21,10.21,-141.18,18.789,138.184,1130.479,-4.52,60.52,-234.63
1766237879042,-7.43,13.90,-154.37,-333.750,5.371,992.783,-12.27,69.34,-257.32
1766237879053,-11.48,18.49,-168.37,-528.086,-42.480,980.576,-21.34,80.71,-266.51
1766237879063,-16.83,22.57,177.52,-712.168,-85.449,1034.775,-30.96,87.77,-264.94
1766237879073,-24.24,24.80,163.21,-734.141,-364.746,1025.498,-25.09,99.90,-249.38
1766237879083,-29.70,24.26,150.51,-548.105,-399.414,1134.873,-21.52,110.96,-228.44
1766237879093,-31.46,17.55,139.51,76.406,-308.594,1092.881,-9.27,108.59,-223.82
1766237879103,-31.61,5.13,129.07,830.801,-339.844,946.885,4.04,90.40,-228.19
1766237879112,-29.98,-7.42,118.99,940.176,-349.121,832.139,4.66,65.09,-228.88
1766237879123,-27.31,-20.14,109.12,1099.355,-372.070,673.447,3.41,37.96,-227.63
1766237879133,-23.12,-30.70,99.24,1074.941,-406.250,687.119,5.66,13.96,-216.76
1766237879143,-17.76,-36.10,89.18,634.023,-318.359,701.279,-1.02,-4.60,-198.51
1766237879153,-13.22,-37.65,80.17,461.172,-314.453,777.451,-6.09,-18.04,-176.57
1766237879163,-9.51,-37.06,72.06,361.074,-240.723,830.186,-16.84,-24.04,-154.19
1766237879173,-6.47,-34.63,64.61,221.426,-152.344,845.811,-26.52,-29.35,-138.13
1766237879183,-0.98,-35.65,55.50,499.746,59.570,941.025,-27.15,-39.98,-140.19
1766237879193,3.52,-31.90,46.88,139.395,101.562,1008.408,-30.65,-43.29,-139.19
1766237879203,8.59,-30.47,37.52,351.309,264.160,1051.865,-32.84,-44.54,-144.51
1766237879213,12.60,-25.70,28.73,59.805,316.895,1099.229,-31.52,-44.29,-146.07
1766237879223,15.24,-19.00,20.82,-179.453,384.766,1122.178,-32.84,-38.04,-141.26
1766237879233,16.37,-12.19,13.89,-298.105,431.641,1232.529,-32.21,-30.54,-132.94
1766237879243,17.54,-6.27,7.57,-314.219,532.715,1218.369,-27.46,-23.29,-123.57
1766237879253,18.95,-1.87,1.95,-267.832,599.121,1199.814,-17.90,-20.60,-111.94
1766237879263,20.20,2.60,-2.63,-390.391,703.125,1308.701,-13.34,-11.91,-95.63
1766237879273,22.08,4.79,-6.46,-207.773,727.051,1236.436,-1.15,-9.23,-83.51
1766237879282,23.52,7.83,-9.27,-352.793,677.734,1262.314,9.73,-1.48,-64.57
1766237879293,25.38,8.83,-11.29,-186.289,709.961,1336.045,25.10,4.71,-50.13
1766237879302,27.14,8.25,-12.72,-45.176,578.613,1192.979,39.04,4.40,-34.44
1766237879312,26.95,5.83,-13.34,63.711,259.766,756.455,34.16,2.27,-9.38
1766237879322,25.44,-2.25,-13.02,366.445,142.090,553.330,15.16,-2.54,13.18
1766237879333,25.91,-12.83,-13.61,1071.035,322.266,709.092,11.04,-19.41,-0.69
1766237879343,27.13,-21.05,-15.50,1256.582,436.035,880.479,12.98,-21.73,-27.01
1766237879353,29.21,-26.83,-18.71,1332.266,512.207,1048.936,19.48,-27.16,-51.82
1766237879363,30.34,-30.00,-21.62,970.449,374.023,1075.791,25.73,-36.98,-56.51
1766237879373,30.57,-31.90,-24.04,794.668,246.582,1106.064,34.98,-48.79,-58.44
1766237879383,26.16,-30.08,-23.35,330.312,-125.488,1149.521,40.79,-39.41,-51.44
1766237879393,23.97,-27.83,-23.50,393.789,1.465,1270.127,46.23,-23.16,-51.13
1766237879403,22.98,-24.25,-23.85,323.965,67.383,1377.061,56.29,-3.60,-51.01
1766237879413,22.05,-20.40,-24.06,265.371,50.781,1252.061,60.04,14.02,-49.07
1766237879423,21.10,-18.69,-24.41,353.262,28.320,976.670,57.10,22.09,-47.69
1766237879433,18.98,-19.94,-24.42,400.137,-61.523,660.264,48.60,22.34,-43.19
1766237879443,12.55,-21.48,-22.74,310.293,-293.457,544.053,36.79,13.40,-31.51
1766237879453,2.71,-20.71,-19.22,141.348,-572.266,514.268,24.41,10.02,-11.01
1766237879463,-6.57,-13.84,-15.94,-252.695,-633.789,667.588,-7.15,19.02,15.99
1766237879473,-9.18,-5.55,-14.56,-334.238,-212.891,1021.592,-28.40,35.34,32.81
1766237879483,-7.30,1.20,-13.08,-364.023,131.348,1266.221,-23.77,40.84,42.81
1766237879493,-4.89,6.35,-10.98,-358.652,168.457,1206.162,-17.40,33.77,45.12
1766237879503,-4.45,12.34,-8.44,-555.918,-1.465,1213.975,-19.09,39.46,53.49
1766237879513,-5.46,17.20,-5.84,-476.328,-176.758,1131.455,-16.84,50.65,61.43
1766237879523,-7.00,17.63,-3.29,-106.699,-249.512,1085.557,-16.09,55.02,65.81
1766237879533,-7.83,16.41,-0.28,38.320,-227.051,1093.857,-15.52,52.52,72.74
1766237879543,-6.94,15.64,3.81,56.387,-101.074,1141.709,-16.90,58.09,86.68
1766237879553,-6.26,18.56,8.84,-258.555,-140.625,1195.908,-17.46,64.71,107.12
1766237879563,-3.17,19.16,15.36,-60.312,54.688,1231.064,-17.02,70.15,122.31
1766237879573,1.42,16.52,22.59,232.656,257.812,1212.021,-13.96,64.96,124.81
1766237879583,5.55,12.64,29.51,291.250,294.922,1059.189,-9.46,55.59,119.93
1766237879593,9.38,9.22,36.20,211.660,344.238,1006.943,-4.96,44.77,118.62
1766237879603,12.67,5.13,42.49,281.973,415.527,1055.283,-1.40,35.77,115.37
1766237879612,14.36,3.89,48.87,19.766,347.656,1083.115,1.10,30.40,123.62
1766237879623,15.83,3.75,55.59,-100.840,354.980,1114.365,5.66,27.21,132.12
1766237879633,16.75,5.12,62.51,-302.012,321.777,1221.787,12.54,24.52,137.93
1766237879643,17.44,6.94,69.82,-388.438,254.883,1253.525,21.16,29.59,145.68
1766237879653,17.73,7.30,77.50,-268.809,187.988,1257.920,26.23,33.40,155.31
1766237879663,16.76,5.98,85.01,-93.516,59.570,1179.795,29.48,32.21,155.81
1766237879673,14.87,3.68,92.27,30.508,-6.836,1102.646,26.73,27.40,150.43
1766237879683,10.87,1.86,99.17,49.551,-179.688,1042.100,22.29,21.77,142.18
1766237879693,5.65,3.95,105.83,-202.891,-326.172,1007.432,12.48,21.34,136.06
1766237879703,0.26,7.31,111.80,-314.219,-458.984,1054.307,2.48,22.46,126.93
1766237879713,-4.77,13.06,116.74,-491.465,-515.137,944.932,-5.96,33.96,113.68
1766237879723,-10.16,18.98,120.16,-489.512,-576.660,855.576,-17.90,48.40,98.24
1766237879733,-12.54,20.74,122.77,-209.238,-364.746,1038.193,-28.59,58.40,75.37
1766237879743,-13.59,21.38,124.89,-162.852,-309.570,1307.725,-34.15,63.59,57.18
1766237879753,-13.73,18.82,126.08,177.969,-196.289,1386.826,-34.59,64.71,29.68
1766237879763,-14.45,18.73,126.13,-10.996,-195.312,1364.854,-39.21,78.40,11.87
1766237879773,-14.15,18.17,125.17,81.777,-50.781,1367.783,-39.34,90.21,-14.69
1766237879783,-12.45,19.22,123.37,-44.199,168.457,1527.451,-37.46,102.59,-40.63
1766237879793,-9.64,19.71,120.91,48.574,389.648,1643.174,-28.52,108.21,-64.82
1766237879803,-5.90,18.35,117.78,308.828,557.617,1676.865,-10.46,101.46,-87.13
1766237879813,-2.30,14.32,113.47,755.117,600.098,1642.197,5.73,87.46,-111.88
1766237879823,1.89,10.41,107.54,651.113,587.402,1415.635,23.41,68.27,-145.82
1766237879833,4.89,7.60,100.06,429.922,366.699,1150.010,27.91,57.52,-172.88
1766237879843,7.70,4.07,90.93,532.949,359.863,961.533,23.35,50.21,-210.32
1766237879853,9.45,3.89,80.12,245.352,268.555,771.592,8.54,51.27,-248.26
1766237879863,8.63,8.37,67.98,-31.992,143.555,629.990,-3.90,54.15,-279.01
1766237879873,7.26,15.17,54.91,-247.324,201.660,671.494,-3.71,50.02,-297.01
1766237879883,2.74,20.18,40.86,-337.168,77.637,840.439,2.60,44.15,-293.26
1766237879893,-2.68,18.26,26.30,-59.824,-108.398,1146.104,20.54,29.77,-285.07
1766237879903,-10.30,16.33,11.26,-154.551,-619.141,1147.080,37.98,23.21,-270.01
1766237879913,-17.29,12.28,-3.35,-27.598,-879.883,1114.854,45.85,27.52,-263.19
1766237879923,-23.90,6.44,-17.42,164.785,-1099.121,926.377,48.04,35.77,-259.57
1766237879933,-27.42,-2.75,-30.35,477.773,-1071.777,849.229,51.54,27.52,-260.88
1766237879943,-29.09,-13.00,-42.12,690.664,-1066.895,669.541,51.29,22.21,-254.51
1766237879953,-31.62,-17.84,-51.79,242.910,-1142.578,608.018,35.16,17.52,-239.13
1766237879963,-32.29,-23.57,-60.83,346.914,-853.516,590.928,18.48,10.27,-226.07
1766237879973,-30.86,-28.80,-69.20,398.184,-639.160,612.900,7.35,2.40,-200.01
1766237879983,-27.51,-34.24,-77.51,465.566,-397.461,579.209,-8.09,-8.29,-171.94
1766237879993,-19.42,-40.47,-88.32,543.203,-90.820,579.209,-20.40,-28.29,-154.38
1766237880003,-8.14,-41.53,-101.04,326.406,101.074,721.787,-24.96,-52.85,-140.82
1766237880013,5.54,-43.21,-116.12,600.332,460.449,1021.104,-23.02,-81.60,-143.76
1766237880024,17.24,-40.22,-130.08,306.875,576.172,1184.678,-17.34,-98.16,-142.51
1766237880033,25.32,-34.56,-141.56,37.344,627.930,1284.287,-9.15,-106.85,-139.26
1766237880044,30.10,-26.95,-150.72,-294.688,692.871,1388.291,-3.15,-102.04,-130.57
1766237880053,32.20,-18.42,-157.81,-600.840,672.363,1429.307,5.54,-88.35,-115.88
1766237880064,33.33,-10.87,-163.67,-625.254,802.246,1590.439,14.98,-69.16,-103.44
1766237880073,33.97,-2.95,-167.79,-925.547,870.117,1755.967,31.04,-39.66,-81.32
1766237880083,35.72,3.65,-170.49,-828.867,1001.953,1783.311,56.41,-11.16,-63.51
1766237880093,38.66,9.21,-171.65,-783.457,1099.609,1697.373,76.41,14.15,-42.44
1766237880103,42.50,13.19,-171.49,-605.234,888.184,1109.971,80.85,16.71,-12.57
1766237880113,46.82,12.47,-170.88,-119.883,482.910,398.545,54.60,0.84,6.62
1766237880123,47.94,1.08,-171.41,396.230,300.781,300.400,30.54,-19.48,12.99
1766237880133,45.77,-8.62,-172.34,890.371,369.629,816.514,27.16,-28.04,-0.07
1766237880144,43.92,-15.94,-173.84,1215.566,391.602,1108.018,33.79,-28.54,-34.57
1766237880154,43.81,-23.73,-177.05,1521.230,223.145,925.400,41.54,-47.29,-67.76
1766237880163,42.20,-30.58,179.77,1180.410,-44.434,895.127,39.54,-73.98,-77.19
1766237880173,35.36,-32.68,-179.66,564.199,-379.395,1058.213,40.60,-65.98,-69.94
1766237880183,29.61,-30.37,-178.36,423.086,-284.668,1466.416,47.16,-31.35,-66.07
1766237880193,26.04,-24.53,-177.45,167.715,-80.078,1590.439,54.23,5.21,-59.76
1766237880203,24.28,-19.95,-177.12,188.711,7.324,1034.775,66.29,20.84,-52.44
1766237880213,22.87,-16.82,-177.25,155.996,21.973,699.814,60.66,20.59,-47.26
1766237880223,14.61,-12.38,-175.82,-18.809,-332.031,521.104,40.73,25.65,-39.13
1766237880233,3.90,-10.62,-174.65,46.621,-805.664,440.537,27.73,23.96,-33.19
1766237880243,-7.21,-9.88,-173.96,136.953,-1131.836,512.314,6.73,21.52,-29.51
1766237880254,-18.45,-9.30,-174.24,153.066,-1194.824,676.377,-35.09,19.71,-36.44
1766237880264,-20.56,-8.39,-176.25,166.738,-390.625,1270.615,-56.96,22.71,-34.51
1766237880273,-17.57,-5.76,-178.49,-98.887,48.828,1495.713,-40.90,12.59,-30.63
1766237880284,-16.03,0.75,-179.69,-536.875,-67.383,1365.830,-30.21,23.46,-14.13
1766237880294,-14.99,7.74,-179.13,-572.031,-108.398,1354.600,-26.59,44.84,22.93
1766237880304,-13.40,14.61,-177.46,-633.066,-90.820,1316.514,-17.77,56.59,42.24
1766237880313,-9.73,18.71,-173.31,-410.410,36.133,1334.092,-9.77,60.77,80.37
1766237880323,-5.93,19.95,-167.35,-143.320,5.371,1289.658,-3.84,68.15,115.49
1766237880333,-2.86,17.23,-160.72,219.961,-45.898,1229.600,3.98,64.71,135.31
1766237880344,-1.36,13.96,-153.69,274.160,-165.527,1082.627,15.73,60.46,154.62
1766237880353,0.67,8.83,-146.10,446.523,-60.547,1089.463,18.66,46.59,163.37
1766237880363,0.97,7.10,-138.62,115.957,-127.930,1026.475,18.16,33.59,162.62
1766237880373,1.15,8.51,-130.94,-133.066,-118.652,1009.873,14.91,30.21,166.18
1766237880383,2.64,8.97,-122.98,-109.629,-10.254,1050.400,13.54,27.59,168.87
1766237880393,4.64,9.48,-114.99,-167.246,81.055,1155.869,9.85,25.84,167.24
1766237880403,6.36,12.61,-107.40,-482.188,83.984,1207.139,8.66,26.59,158.62
1766237880413,8.33,16.18,-99.90,-584.238,101.562,1171.494,7.66,33.46,154.31
1766237880423,10.19,20.78,-92.37,-775.156,83.008,1183.701,3.98,46.09,153.31
1766237880433,12.27,23.65,-84.70,-648.691,112.793,1225.205,0.16,58.77,150.68
1766237880443,13.76,24.24,-77.54,-407.969,88.379,1140.732,-0.77,63.71,142.56
1766237880453,14.33,23.67,-71.07,-271.738,60.547,1086.045,-3.21,66.84,132.74
1766237880463,14.32,23.13,-65.20,-216.074,65.430,976.182,-8.84,69.71,119.18
1766237880473,13.15,24.13,-59.84,-352.305,3.906,1157.334,-16.65,76.34,113.06
1766237880484,11.61,25.71,-54.83,-384.043,-32.227,1137.314,-21.90,80.90,107.06
1766237880493,10.27,27.93,-49.98,-382.090,-21.973,1039.658,-27.27,91.09,99.49
1766237880503,8.50,31.91,-45.54,-535.410,-80.078,1052.354,-33.65,102.90,94.43
1766237880513,7.99,33.58,-40.90,-326.426,3.906,999.619,-34.40,110.09,85.74
1766237880523,7.64,33.29,-36.33,-177.012,33.691,1084.580,-38.09,112.59,80.31
1766237880533,9.11,29.53,-31.62,176.016,231.934,1176.377,-33.77,102.71,63.81
1766237880543,8.03,26.72,-28.53,135.000,75.195,1269.639,-31.59,100.59,53.87
1766237880553,6.90,23.50,-26.25,268.789,100.098,1333.115,-29.59,97.46,36.99
1766237880563,5.11,23.49,-24.60,3.164,41.016,1398.545,-29.90,107.02,28.18
1766237880573,4.65,22.39,-23.71,187.734,160.645,1429.307,-22.15,110.59,4.87
1766237880583,4.06,22.03,-23.94,165.273,157.227,1509.385,-15.77,115.09,-16.01
1766237880594,4.23,19.00,-25.67,596.426,268.555,1599.229,-5.15,106.09,-49.32
1766237880603,4.94,14.36,-29.63,849.844,333.008,1592.881,9.54,83.15,-92.57
1766237880614,4.34,14.02,-35.18,190.176,105.957,1419.053,18.29,80.40,-116.76
1766237880624,4.70,10.85,-42.56,526.602,193.359,1285.752,22.23,74.59,-155.88
1766237880634,5.35,7.67,-52.71,529.043,201.660,1111.924,22.23,68.02,-210.63
1766237880643,4.09,12.06,-65.37,-103.770,86.914,850.205,15.29,73.46,-253.13
1766237880654,2.75,18.43,-79.91,-265.391,153.320,721.787,13.66,79.84,-284.07
1766237880664,-0.25,18.82,-95.64,-100.840,155.273,1169.541,17.23,61.59,-301.19
1766237880674,-8.48,18.70,-113.31,-287.852,-372.559,1147.568,26.48,46.15,-298.07
1766237880684,-15.55,12.35,-130.64,95.938,-560.059,958.604,46.79,38.15,-298.32
1766237880694,-23.79,6.63,-147.19,0.723,-1042.969,730.088,56.60,43.09,-293.38
1766237880704,-30.18,3.10,-161.71,-220.469,-1278.320,739.854,47.91,60.59,-278.44
1766237880714,-32.61,-4.68,-174.57,301.504,-1103.027,851.182,42.04,61.46,-268.69
1766237880724,-33.35,-14.07,174.07,603.750,-1037.598,699.326,37.23,51.27,-257.44
1766237880734,-33.23,-18.38,163.95,261.465,-1026.855,765.244,24.66,45.15,-241.63
1766237880744,-35.54,-20.66,155.71,98.867,-1081.055,592.393,4.29,36.15,-221.69
1766237880754,-37.21,-25.61,148.34,360.586,-939.941,529.404,-3.71,26.02,-207.63
1766237880764,-36.86,-31.20,141.23,435.293,-653.320,517.686,-16.40,12.96,-190.07
1766237880774,-33.13,-35.70,133.20,370.840,-361.328,530.381,-25.21,-3.29,-171.57
1766237880784,-22.18,-41.26,120.95,519.766,62.500,694.443,-31.34,-27.54,-164.69
1766237880794,-7.63,-46.55,105.14,825.918,462.402,923.447,-34.65,-54.23,-170.44
1766237880804,7.65,-45.09,87.95,398.672,569.824,1016.709,-34.34,-70.16,-170.44
1766237880814,20.42,-41.34,72.35,336.660,711.914,1142.197,-25.15,-90.41,-174.26
1766237880824,29.12,-34.67,59.77,70.059,757.324,1233.994,-15.46,-98.73,-171.82
1766237880834,33.59,-26.30,50.34,-245.859,751.953,1365.342,-5.84,-97.66,-158.82
1766237880844,35.65,-18.24,42.69,-422.129,777.832,1504.502,5.98,-93.54,-141.69
1766237880854,37.08,-11.34,35.97,-454.844,844.727,1508.896,20.41,-85.48,-124.07
1766237880864,37.61,-4.54,30.72,-708.750,869.141,1601.670,31.41,-69.41,-97.01
1766237880874,38.61,0.55,26.45,-630.137,904.297,1598.252,52.85,-54.54,-76.51
1766237880884,40.07,4.93,23.47,-697.520,947.266,1637.314,70.04,-35.66,-52.26
1766237880894,41.66,8.34,22.05,-642.344,863.770,1595.811,85.85,-12.23,-24.01
1766237880904,43.65,9.74,21.32,-367.930,605.469,1047.959,93.54,-12.66,0.31
1766237880914,41.36,10.48,20.00,-193.125,130.371,534.775,76.79,-27.98,17.99
1766237880924,33.25,8.00,18.61,-29.551,-97.656,356.553,43.35,-29.35,32.81
1766237880934,30.51,-1.63,18.89,453.359,124.023,717.393,29.16,-24.98,29.24
1766237880944,30.16,-10.07,18.90,985.098,381.348,1122.666,33.48,-15.54,5.24
1766237880954,31.09,-17.78,17.26,1332.266,445.312,1146.592,37.91,-22.48,-31.38
1766237880990,31.11,-25.46,14.60,1121.816,127.441,828.232,36.48,-41.29,-57.69
1766237880993,25.54,-26.28,14.74,374.746,-223.633,853.135,37.48,-34.73,-63.44
1766237880996,21.02,-21.39,14.71,70.547,-233.398,1166.611,41.91,-6.29,-70.19
1766237880999,17.41,-12.91,14.26,-240.000,-221.680,1390.732,39.29,34.84,-69.01
1766237881004,14.76,-7.35,13.00,38.809,-114.746,1053.330,40.16,54.96,-66.63
1766237881014,8.96,-7.65,11.60,258.535,-305.664,601.182,33.16,47.46,-64.63
1766237881024,-1.35,-8.77,10.39,324.941,-860.840,280.869,17.98,47.65,-69.32
1766237881034,-12.04,-10.99,8.60,600.332,-1465.332,112.900,5.98,47.96,-77.57
1766237881044,-22.49,-12.06,6.25,487.539,-1345.703,727.158,-41.40,40.90,-79.07
1766237881054,-24.23,-11.61,2.87,280.020,-452.148,1343.857,-67.71,29.59,-57.63
1766237881064,-20.21,-8.02,0.15,-119.883,191.406,1478.135,-57.21,22.02,-24.32
1766237881074,-15.83,-3.65,-0.58,-193.125,260.254,1339.951,-40.52,22.96,8.43
1766237881084,-12.96,2.53,0.95,-381.113,113.770,1301.865,-27.77,30.71,44.18
1766237881094,-11.32,5.79,4.12,-151.133,-61.523,1096.299,-13.90,28.77,70.93
1766237881104,-11.29,6.78,8.47,-21.738,-217.285,978.135,-4.09,22.71,96.18
1766237881114,-10.80,6.34,13.93,77.383,-224.121,1084.092,-1.02,16.65,117.43
1766237881124,-9.47,4.02,20.32,260.488,-203.613,1231.064,9.10,7.21,134.24
1766237881134,-7.85,2.11,27.48,238.027,-186.035,1269.150,19.91,0.77,148.49
1766237881144,-4.71,1.92,35.08,46.133,-9.277,1102.158,24.73,-4.10,154.24
1766237881154,-0.44,4.80,43.22,-268.809,131.836,1166.123,26.91,-0.79,159.99
1766237881164,3.42,7.88,51.95,-359.629,144.531,1144.150,24.48,9.40,168.81
1766237881174,7.16,10.81,61.10,-452.402,175.293,1211.533,23.91,19.65,174.43
1766237881184,10.49,13.15,70.48,-470.957,172.363,1241.318,23.79,31.52,178.31
1766237881194,13.59,16.24,79.84,-684.336,223.145,1371.201,19.04,42.96,174.62
1766237881204,14.92,20.00,89.14,-775.645,34.180,1334.580,14.73,60.71,178.62
1766237881214,17.07,22.43,98.83,-655.039,96.680,1336.045,14.35,74.84,180.99
1766237881224,18.93,23.30,107.92,-449.473,96.191,1158.799,15.04,78.90,171.93
1766237881234,20.37,24.52,116.60,-516.855,125.977,1206.162,7.98,83.52,162.24
1766237881244,20.40,25.51,124.13,-469.980,45.410,1182.725,5.54,85.34,148.68
1766237881254,18.83,26.49,130.41,-402.598,-45.410,1113.877,-1.59,86.90,133.06
1766237881264,15.98,27.92,135.46,-408.457,-134.766,1131.943,-9.84,88.34,115.93
1766237881274,12.69,30.55,139.71,-480.723,-197.266,1128.037,-17.40,95.40,102.49
1766237881284,8.23,34.56,142.81,-562.754,-339.355,1098.740,-26.52,107.96,91.43
1766237881294,3.64,38.71,144.98,-474.375,-323.730,949.326,-34.27,124.65,80.12
1766237881304,-1.18,42.10,145.99,-391.855,-341.797,926.865,-38.15,137.84,68.99
1766237881314,-2.00,41.10,148.86,-40.293,-95.215,1142.686,-44.09,143.40,57.99
1766237881324,-0.11,36.73,152.90,532.949,198.242,1323.838,-46.46,136.52,41.87
1766237881334,1.64,31.05,155.64,912.344,328.125,1419.541,-35.34,120.52,18.31
1766237881344,3.32,25.07,156.89,966.055,413.574,1379.502,-25.15,106.21,-8.26
1766237881354,4.60,20.32,156.69,689.199,378.418,1297.471,-18.40,100.84,-31.32
1766237881364,4.81,18.40,155.30,343.984,268.066,1262.803,-15.77,104.40,-47.07
1766237881374,6.11,15.02,152.95,646.719,445.312,1335.557,-10.71,96.65,-72.82
1766237881384,7.64,9.90,148.40,994.863,490.234,1443.955,7.66,69.96,-113.88
1766237881394,8.71,7.07,142.47,536.855,329.590,1335.068,16.04,54.27,-137.01
1766237881404,10.49,1.74,134.70,879.629,339.355,1235.459,27.41,28.96,-174.88
1766237881414,12.67,-4.01,124.61,937.734,273.926,1061.631,30.29,6.52,-223.57
1766237881424,14.79,-6.86,112.67,540.273,177.734,859.971,26.29,-4.79,-264.94
1766237881434,14.97,-2.25,100.18,-13.438,59.082,738.389,26.60,-13.66,-286.88
1766237881444,12.94,6.31,87.59,-462.168,-51.758,875.107,34.85,-21.48,-288.76
1766237881454,6.26,12.03,74.06,-636.973,-539.062,1153.916,35.48,-25.10,-279.88
1766237881464,-2.29,15.79,59.90,-779.551,-1000.977,1305.771,39.16,-9.79,-268.07
1766237881474,-12.41,19.52,45.07,-985.117,-1489.746,1124.619,43.23,23.59,-256.44
1766237881484,-24.48,21.39,29.05,-843.027,-1796.387,873.643,33.98,61.02,-250.51
1766237881494,-36.12,17.78,12.65,-145.762,-1585.449,762.803,22.41,101.02,-253.44
1766237881504,-43.52,6.83,-1.33,418.203,-1280.273,615.830,20.10,81.02,-262.82
1766237881514,-46.86,-8.15,-13.46,870.352,-1082.031,424.912,17.29,68.09,-268.07
1766237881524,-47.19,-19.44,-24.35,425.039,-781.250,477.158,-11.02,49.52,-264.88
1766237881534,-45.27,-31.08,-34.69,608.633,-655.762,438.096,-18.59,30.52,-246.32
1766237881544,-42.37,-34.10,-43.98,209.707,-554.199,494.736,-31.09,20.96,-209.69
1766237881554,-31.12,-37.29,-57.45,258.535,-107.910,663.193,-42.65,6.52,-178.07
1766237881564,-17.36,-39.36,-72.55,288.809,174.316,745.713,-48.65,-18.10,-154.57
1766237881574,-2.34,-41.80,-88.94,526.113,495.605,867.295,-45.77,-43.29,-145.26
1766237881585,11.18,-40.60,-104.31,438.711,649.414,1003.037,-38.84,-63.79,-136.13
1766237881595,21.37,-37.02,-117.26,317.129,741.211,1151.475,-30.34,-82.35,-131.19
1766237881607,28.11,-31.58,-127.72,90.078,777.344,1233.018,-22.77,-92.10,-124.07
1766237881617,31.87,-25.43,-136.15,-111.582,788.086,1364.365,-12.46,-95.98,-116.57
1766237881625,33.34,-18.30,-142.74,-491.953,841.309,1531.846,-7.46,-89.48,-97.69
1766237881635,34.02,-11.63,-148.03,-655.039,889.648,1662.705,7.35,-76.54,-81.94
1766237881645,34.65,-4.47,-151.49,-969.492,938.477,1735.459,25.54,-49.91,-55.82
1766237881655,36.55,1.64,-153.29,-1065.195,1229.004,1990.342,50.54,-21.29,-32.63
1766237881665,40.13,6.12,-153.68,-716.562,1091.797,1675.400,90.48,3.77,-15.01
1766237881675,43.21,11.16,-152.85,-872.324,789.551,1248.154,92.35,10.96,15.37
1766237881685,45.01,15.38,-151.84,-417.734,312.012,481.553,69.73,3.71,33.93
1766237881695,38.89,18.29,-152.53,-192.637,-17.090,313.096,36.54,4.46,45.49
1766237881705,34.09,10.51,-152.28,341.055,111.328,858.018,18.60,17.40,37.37
1766237881715,31.91,2.16,-152.15,1017.324,291.992,1185.654,21.98,25.90,0.31
1766237881725,30.44,-6.15,-153.67,1415.762,250.488,1079.209,19.73,14.52,-43.26
1766237881735,29.05,-14.39,-156.59,1291.738,57.617,845.811,23.29,-8.79,-71.01
1766237881745,25.04,-19.50,-158.95,796.621,-185.059,867.295,25.10,-16.60,-82.51
1766237881755,19.21,-15.44,-160.31,140.859,-226.074,1131.943,16.10,12.40,-84.82
1766237881765,17.58,-9.26,-163.14,64.199,149.414,1395.127,10.73,47.09,-90.57
1766237881776,17.95,-3.35,-166.20,15.371,291.992,1139.268,14.98,60.65,-87.51
1766237881785,16.52,-2.50,-169.19,193.594,67.871,630.479,17.85,56.21,-86.13
1766237881795,7.97,-7.38,-172.11,495.352,-523.438,290.146,12.10,44.21,-90.88
1766237881805,-2.62,-10.53,-174.61,656.973,-1409.668,188.584,4.23,38.34,-91.51
1766237881815,-15.83,-12.34,-176.55,472.402,-1755.859,399.521,-48.77,28.15,-84.76
1766237881825,-20.97,-16.45,179.99,717.520,-616.699,1176.865,-81.46,16.52,-83.01
1766237881835,-16.31,-16.22,174.94,261.465,284.668,1614.854,-58.46,-1.23,-68.38
1766237881845,-11.71,-10.74,171.57,-375.742,336.426,1698.350,-32.96,5.34,-40.44
1766237881855,-7.54,-4.46,170.47,-539.805,335.938,1675.400,-11.40,12.40,-7.88
1766237881865,-5.30,2.86,172.19,-563.730,72.266,1146.592,2.35,18.27,38.24
1766237881875,-4.00,7.60,176.55,-345.957,-51.270,1062.119,7.73,25.21,91.12
1766237881885,-2.53,4.75,-177.62,254.629,-79.590,1184.189,16.73,21.90,123.56
1766237881895,-1.74,-0.97,-170.85,579.336,-153.320,1214.463,30.60,5.46,144.56
1766237881905,-3.03,-6.23,-163.59,522.207,-301.270,1048.447,39.79,-9.98,150.06
1766237881915,-4.28,-8.77,-155.77,316.152,-245.117,1006.943,40.41,-15.66,157.62
1766237881925,-4.00,-5.20,-147.73,-170.176,-131.348,1137.314,37.16,-13.23,167.06
1766237881935,-2.71,-0.27,-139.48,-391.855,-68.359,1196.396,33.29,-7.91,175.93
1766237881945,-0.34,2.75,-131.14,-293.223,15.137,1200.791,32.85,-1.48,177.93
1766237881955,1.59,6.22,-122.79,-405.039,-25.391,1212.998,31.85,6.02,178.62
1766237881965,3.06,8.86,-114.57,-412.363,-68.848,1273.545,28.35,10.59,176.99
1766237881975,4.22,14.21,-106.39,-806.895,-115.723,1302.842,19.98,22.96,177.68
1766237881989,6.08,19.22,-98.10,-844.492,-71.777,1273.545,15.10,35.15,176.37
1766237882033,9.22,21.25,-89.83,-561.777,78.613,1269.639,15.98,44.34,165.87
1766237882035,11.98,22.72,-82.29,-533.945,107.422,1228.135,15.10,49.15,149.49
1766237882038,13.85,24.47,-75.66,-541.270,113.281,1152.451,6.73,56.27,130.43
1766237882041,14.97,26.25,-69.96,-512.949,135.742,1129.990,-2.40,66.77,108.06
1766237882044,14.63,28.84,-65.67,-577.891,60.547,1163.682,-6.71,76.52,85.56
1766237882047,13.24,32.99,-62.42,-715.098,-23.438,1152.451,-12.96,90.02,70.06
1766237882054,11.82,35.52,-59.78,-540.293,14.160,1172.471,-18.84,102.02,53.12
1766237882064,9.37,38.91,-57.98,-523.203,-66.406,1067.002,-24.84,120.52,45.31
1766237882074,6.97,40.82,-56.52,-377.695,-53.711,1108.994,-30.52,133.15,36.18
1766237882084,6.99,40.08,-53.74,-97.910,122.070,1137.803,-34.84,141.15,29.74
1766237882094,8.36,36.92,-50.40,244.375,302.734,1347.275,-34.09,135.21,23.43
1766237882104,10.75,32.27,-47.10,577.383,465.332,1330.674,-24.59,125.40,14.87
1766237882114,12.14,28.40,-44.63,453.848,406.250,1344.346,-18.65,120.65,10.18
1766237882125,13.40,24.75,-42.69,470.449,404.297,1246.201,-13.02,117.96,1.12
1766237882134,14.11,21.32,-42.16,504.141,400.391,1247.178,-5.96,110.59,-22.76
1766237882144,14.70,17.88,-43.00,600.820,433.105,1235.947,-1.40,104.02,-49.76
1766237882154,14.26,14.98,-45.68,571.035,380.859,1325.303,1.48,89.27,-79.57
1766237882165,14.67,10.00,-50.86,976.309,505.859,1324.326,7.48,62.21,-126.76
1766237882174,13.67,5.28,-58.19,966.543,280.762,1235.459,6.16,51.90,-163.44
1766237882184,12.51,0.01,-68.32,950.918,139.648,997.178,5.23,35.46,-213.82
1766237882194,6.80,0.62,-80.18,199.453,-163.086,765.244,-2.90,32.15,-244.63
1766237882205,0.40,11.07,-93.85,-624.766,-235.840,705.674,-8.27,36.84,-248.57
1766237882215,-5.82,20.12,-107.94,-902.598,-242.188,803.818,5.91,49.34,-238.63
1766237882225,-11.35,19.92,-121.30,-527.598,-400.879,1589.951,15.60,43.96,-232.82
1766237882235,-18.95,17.37,-135.73,-344.980,-912.109,1433.701,29.29,52.65,-236.38
1766237882245,-27.58,10.31,-150.92,116.445,-1251.465,954.697,41.10,59.02,-254.44
1766237882255,-35.80,4.94,-165.34,-124.766,-1643.066,689.561,36.66,76.46,-263.07
1766237882265,-41.58,-0.53,-178.48,-87.656,-1400.879,622.178,20.66,91.02,-264.51
1766237882275,-41.54,-9.04,169.30,343.496,-1003.906,807.725,20.41,87.46,-265.76
1766237882285,-39.02,-17.75,157.23,542.227,-791.992,790.635,6.85,79.02,-262.07
1766237882295,-39.63,-17.92,146.96,-93.027,-919.434,606.553,-8.77,73.59,-241.07
1766237882305,-39.59,-21.24,137.31,220.449,-757.812,593.369,-20.71,68.09,-219.82
1766237882315,-37.89,-24.42,127.95,315.664,-544.922,605.576,-34.59,67.02,-189.44
1766237882325,-32.27,-29.53,117.51,505.117,-195.312,630.479,-46.90,58.46,-166.44
1766237882335,-21.90,-34.25,104.85,611.074,228.027,748.154,-51.84,36.77,-156.76
1766237882345,-11.60,-34.70,92.19,416.738,280.762,849.717,-54.52,13.15,-148.13
1766237882355,-0.92,-34.56,79.34,471.914,524.902,992.783,-48.27,-10.60,-151.19
1766237882365,8.63,-31.42,67.33,280.996,693.359,1129.502,-43.71,-25.10,-149.63
1766237882375,15.80,-25.58,57.20,-13.926,777.344,1193.467,-38.52,-33.79,-143.44
1766237882385,20.91,-19.17,48.90,-165.293,836.914,1256.455,-27.71,-38.98,-133.51
1766237882395,23.79,-12.41,42.44,-373.789,898.438,1430.771,-21.46,-37.91,-116.13
1766237882405,25.93,-6.24,37.34,-464.609,900.391,1396.592,-9.34,-34.10,-96.57
1766237882415,28.10,-1.64,33.26,-423.105,940.430,1420.029,7.85,-30.54,-79.07
1766237882425,30.05,3.56,30.88,-679.453,979.004,1434.189,16.41,-17.48,-49.38
1766237882435,33.11,6.47,29.85,-537.363,1189.941,1541.611,33.16,-5.85,-26.07
1766237882445,37.29,6.92,29.64,-259.043,1241.699,1453.232,54.79,-1.48,-9.76
1766237882454,40.91,7.42,30.17,-262.949,840.820,960.068,56.73,-3.23,12.62
1766237882464,42.96,1.03,30.22,277.090,544.434,659.287,48.35,-16.41,16.81
1766237882474,40.98,-5.63,30.42,347.891,324.707,709.092,33.79,-20.41,20.81
1766237882485,38.36,-12.53,30.93,681.387,334.961,975.693,28.10,-17.54,11.12
1766237882497,37.95,-19.80,30.21,1227.285,469.238,1116.807,35.41,-24.79,-15.94
1766237882506,38.54,-26.75,28.15,1377.188,385.742,1037.217,41.54,-40.91,-41.01
1766237882515,38.55,-32.45,25.65,1110.098,190.918,959.092,44.66,-61.73,-55.63
1766237882525,35.36,-32.56,25.37,596.426,-0.488,1213.486,51.35,-54.60,-62.82
1766237882535,31.36,-28.64,26.01,268.301,-116.699,1427.354,59.04,-28.85,-71.07
1766237882545,27.57,-20.92,26.75,-104.258,-98.145,1398.545,56.29,9.77,-70.32
1766237882555,25.97,-13.66,26.33,-41.758,125.977,1169.541,51.41,31.90,-64.32
1766237882564,22.38,-9.91,26.23,116.934,-86.914,867.783,54.23,39.71,-55.51
1766237882575,15.73,-11.69,26.41,365.469,-440.430,637.314,53.54,33.21,-50.51
1766237882585,6.65,-15.33,27.20,573.965,-1117.188,302.842,39.66,25.34,-49.51
1766237882595,-5.28,-18.29,29.02,538.320,-1512.695,132.920,-3.21,17.84,-43.07
1766237882605,-15.19,-22.79,29.59,802.969,-940.918,622.178,-45.96,10.21,-52.69
1766237882615,-12.53,-25.27,25.14,677.969,12.207,1321.396,-39.34,-12.85,-65.63
1766237882625,-8.97,-19.27,21.49,-367.441,153.809,1420.029,-26.15,-24.35,-48.01
1766237882635,-8.59,-9.28,20.93,-1055.430,-8.301,1445.420,-24.59,-0.29,-4.94
1766237882645,-8.97,1.13,22.82,-1003.184,-137.695,1383.896,-15.59,28.90,42.49
1766237882655,-8.29,8.52,26.58,-550.547,-115.234,1168.564,-6.15,36.96,80.62
1766237882665,-6.57,10.96,31.76,-148.691,-83.008,1079.697,-0.21,39.40,107.74
1766237882675,-5.53,8.36,37.54,243.398,-125.000,1060.166,2.04,36.77,121.74
1766237882685,-5.12,3.72,43.50,525.137,-160.156,1119.736,6.10,32.77,125.12
1766237882695,-6.64,1.89,49.89,309.805,-255.371,1114.854,-3.21,32.65,134.43
1766237882705,-4.89,2.97,56.50,83.242,-52.734,1149.521,11.16,34.84,137.81
1766237882715,-1.43,6.55,63.75,-179.453,107.422,1170.518,11.60,38.90,143.49
1766237882725,3.20,9.65,71.86,-245.859,246.582,1223.740,12.66,43.90,151.49
1766237882735,7.22,12.92,80.49,-383.555,244.141,1262.803,12.60,50.59,157.37
1766237882745,10.36,15.04,89.39,-365.977,200.195,1292.100,12.54,57.52,163.62
1766237882755,11.96,17.12,97.89,-432.383,94.238,1312.119,11.23,61.46,161.37
1766237882765,13.02,17.78,105.94,-324.961,53.711,1342.393,13.66,64.09,157.06
1766237882775,13.51,19.04,113.89,-366.953,17.578,1317.979,10.66,72.21,155.68
1766237882785,13.96,21.35,121.87,-448.496,-9.766,1212.998,9.66,79.02,155.62
1766237882795,15.43,20.49,129.45,-176.035,116.211,1191.025,10.10,78.21,143.06
1766237882805,15.80,20.68,136.26,-260.020,96.680,1213.486,4.10,77.77,130.49
1766237882815,14.59,21.83,142.02,-315.195,-2.930,1182.236,-2.40,79.02,116.74
1766237882825,12.03,24.66,146.75,-448.496,-142.090,1206.162,-8.59,85.52,103.93
1766237882835,8.52,28.14,150.29,-469.492,-250.488,1154.404,-15.02,94.84,89.31
1766237882845,4.84,30.93,152.87,-377.695,-262.695,1125.596,-22.52,105.02,74.99
1766237882855,1.27,34.09,154.59,-375.254,-238.770,1028.428,-29.34,114.96,60.06
1766237882865,-0.47,37.80,156.77,-416.758,-111.816,1043.564,-37.65,132.84,51.24
1766237882875,1.08,37.94,160.36,-115.488,125.977,1034.287,-39.71,137.15,39.49
1766237882885,5.17,35.10,165.05,225.820,391.602,1112.412,-35.96,132.09,28.24
1766237882895,8.34,31.21,168.78,482.656,585.938,1437.607,-35.71,122.09,14.37
1766237882905,10.98,26.62,171.51,637.930,633.301,1418.076,-27.96,111.21,1.87
1766237882915,12.87,23.04,173.22,469.961,532.227,1311.631,-17.71,107.52,-8.44
1766237882925,13.72,21.04,173.71,317.129,432.617,1328.232,-6.84,106.65,-23.51
1766237882935,13.27,19.47,172.62,337.148,334.473,1442.490,1.41,103.15,-46.38
1766237882945,12.51,17.32,169.66,467.520,303.711,1488.877,10.85,93.27,-79.94
1766237882955,11.77,15.14,165.11,449.453,231.934,1308.213,21.41,85.21,-109.82
1766237882965,10.99,13.59,158.76,381.582,215.820,1322.861,27.60,73.21,-144.88
1766237882976,10.11,10.92,150.53,446.035,136.230,1072.373,33.85,63.65,-182.51
1766237882985,10.91,6.39,140.33,615.957,207.520,869.736,39.04,46.15,-230.26
1766237882995,9.13,5.19,128.34,211.172,-9.766,700.303,37.23,32.59,-263.57
1766237883005,3.58,8.98,115.60,-168.223,-280.762,697.861,38.73,19.77,-269.44
1766237883015,-3.35,10.66,102.71,-363.047,-774.414,1086.045,45.91,4.21,-256.19
1766237883025,-11.67,12.52,90.06,-664.805,-1396.484,1148.057,41.16,16.90,-240.82
1766237883035,-20.89,15.30,77.37,-892.832,-1824.219,980.088,36.16,55.77,-225.32
1766237883045,-31.89,17.43,64.02,-714.121,-2063.477,710.557,17.85,105.77,-207.76
1766237883055,-43.39,15.57,50.29,-200.938,-1731.445,514.268,-7.59,131.52,-203.19
1766237883065,-52.11,8.05,38.15,219.473,-1152.832,425.889,-29.15,130.46,-206.19
1766237883076,-55.34,-4.57,28.43,529.531,-745.117,478.623,-44.46,109.02,-212.13
1766237883085,-54.43,-15.00,18.87,408.926,-623.535,608.994,-54.96,90.65,-215.13
1766237883096,-52.50,-20.83,9.16,239.980,-648.926,639.268,-60.52,75.52,-205.13
1766237883106,-48.87,-24.89,-0.99,183.340,-494.629,629.990,-65.52,61.15,-197.88
1766237883116,-40.65,-30.56,-12.94,320.059,-183.105,692.490,-65.52,45.02,-183.69
1766237883126,-28.90,-32.68,-26.85,239.492,111.328,877.549,-68.84,31.52,-160.82
1766237883136,-15.62,-34.84,-41.79,386.465,464.844,986.924,-66.96,10.46,-149.26
1766237883146,-2.35,-35.00,-56.68,407.461,677.246,1032.822,-58.21,-8.66,-141.01
1766237883156,8.86,-30.99,-69.83,133.047,771.973,1101.182,-48.46,-22.91,-134.26
1766237883166,17.14,-25.30,-80.57,-1.719,902.832,1218.369,-40.27,-30.73,-127.57
1766237883176,22.88,-18.95,-89.21,-117.441,1018.555,1325.791,-32.46,-31.85,-120.32
1766237883186,26.02,-11.78,-95.64,-359.141,993.164,1442.002,-20.02,-27.04,-106.07
1766237883196,28.54,-5.95,-100.74,-341.074,1074.219,1563.096,-2.02,-21.10,-94.94
1766237883206,31.25,0.12,-104.44,-500.254,1077.637,1466.416,17.48,-7.66,-77.32
1766237883215,33.33,5.48,-106.87,-573.496,1010.254,1578.721,39.10,4.65,-60.69
1766237883226,34.74,11.02,-107.92,-732.188,839.355,1543.076,51.98,22.34,-36.63
1766237883236,36.51,12.97,-108.11,-308.359,719.727,1301.377,63.10,31.02,-20.38
1766237883246,35.57,11.43,-108.59,7.559,289.551,835.557,57.85,25.02,-9.01
1766237883255,31.40,7.56,-109.08,128.164,67.871,562.119,33.23,22.40,0.31
1766237883266,29.68,-0.63,-109.76,753.652,220.215,837.510,20.10,16.65,-14.19
1766237883276,29.69,-6.31,-111.05,979.727,485.352,1176.865,24.79,19.46,-38.94
1766237883287,30.94,-10.97,-113.10,1067.617,581.543,1191.025,32.66,15.09,-55.13
1766237883296,32.17,-15.85,-115.82,1008.535,423.828,1025.498,40.35,-2.48,-64.69
1766237883306,29.09,-16.08,-116.67,416.738,74.707,1048.447,40.48,-0.66,-55.44
1766237883316,25.08,-13.07,-116.89,212.637,-33.203,1312.607,40.79,17.96,-51.88
1766237883326,20.80,-5.31,-117.02,-258.066,-103.027,1286.729,34.04,47.90,-43.38
1766237883336,17.65,1.80,-117.52,-219.492,-24.414,992.295,29.91,62.84,-35.07
1766237883346,11.64,7.57,-118.32,-142.344,-187.988,638.291,18.54,70.27,-22.57
1766237883356,0.29,8.29,-121.13,112.051,-560.059,348.740,11.10,70.77,-29.38
1766237883366,-11.07,8.19,-125.24,233.633,-1125.977,540.146,6.10,72.34,-41.38
1766237883376,-23.00,7.43,-130.17,193.594,-1704.590,803.330,-25.84,60.71,-51.82
1766237883386,-33.66,7.26,-135.15,-31.992,-1423.340,984.971,-70.21,64.96,-56.63
1766237883396,-36.82,7.76,-139.23,-100.352,-609.863,1232.041,-86.84,71.65,-56.63
1766237883406,-37.70,11.50,-142.88,-402.109,-447.266,1265.732,-78.90,79.84,-43.69
1766237883416,-36.81,16.31,-145.66,-499.766,-278.320,1401.963,-74.27,94.77,-23.69
1766237883426,-35.03,23.62,-146.62,-649.668,-109.863,1249.131,-71.71,107.34,15.37
1766237883436,-33.61,33.02,-145.69,-864.512,-188.965,1251.572,-66.40,127.84,67.12
1766237883446,-29.78,39.92,-141.48,-521.738,-174.316,1379.014,-62.46,153.96,115.56
1766237883456,-22.86,40.45,-133.94,310.293,-27.832,1388.779,-48.90,157.34,140.18
1766237883466,-15.88,37.18,-125.79,1065.664,104.980,1192.979,-28.84,138.15,146.18
1766237883476,-9.84,33.79,-117.18,519.277,-35.645,1085.557,-22.46,125.59,160.43
1766237883486,-5.72,30.64,-108.87,335.195,-96.191,1147.080,-25.21,111.84,162.56
1766237883496,-3.54,27.54,-101.11,250.723,-160.156,1131.943,-26.40,98.21,162.68
1766237883506,-1.47,25.18,-92.97,135.488,-115.234,1168.076,-25.96,88.15,167.56
1766237883516,0.13,22.86,-84.84,110.586,-119.141,1282.334,-22.71,78.52,169.68
1766237883526,3.17,22.38,-75.84,-118.418,92.773,1375.596,-24.84,74.40,172.18
1766237883536,5.76,24.68,-66.93,-503.672,98.145,1415.635,-24.59,74.02,169.49
1766237883546,7.95,27.38,-58.04,-597.910,60.547,1388.779,-25.46,83.34,168.37
1766237883556,11.04,28.38,-49.07,-405.039,162.598,1255.967,-21.77,91.09,158.18
1766237883566,12.58,28.24,-41.04,-275.645,97.168,1267.197,-23.65,100.96,147.06
1766237883576,12.60,28.52,-34.19,-276.621,32.715,1196.885,-27.15,104.02,130.18
1766237883586,11.88,30.11,-28.20,-370.371,18.066,1220.811,-33.59,111.40,112.62
1766237883596,10.63,32.23,-23.07,-388.926,2.441,1269.150,-39.09,123.15,94.81
1766237883605,9.46,36.98,-18.37,-607.676,-9.277,1238.877,-42.46,141.96,81.74
1766237883616,10.27,41.21,-13.11,-575.449,145.020,1251.572,-42.52,157.65,66.99
1766237883625,13.94,42.35,-6.64,-213.633,369.629,1152.939,-37.71,169.84,47.62
1766237883635,17.20,42.20,-0.78,-70.566,440.918,1221.787,-33.15,173.65,30.99
1766237883645,19.60,38.87,4.01,465.078,563.965,1430.283,-28.21,163.90,16.18
1766237883655,20.62,33.85,6.96,901.113,570.312,1496.201,-18.96,141.84,-0.94
1766237883665,19.04,28.41,7.94,864.492,296.875,1392.197,-16.77,122.15,-9.82
1766237883675,15.55,22.77,7.43,840.078,57.129,1244.736,-15.90,104.96,-20.32
1766237883685,10.21,17.89,5.83,676.504,-182.129,1093.369,-15.09,95.46,-27.13
1766237883695,5.40,13.90,3.72,579.336,-207.031,1154.893,-12.46,86.59,-37.19
1766237883705,2.87,9.13,1.10,656.484,-90.332,1124.619,-4.59,74.02,-53.57
1766237883715,3.77,3.02,-2.16,819.570,170.410,1076.279,4.41,54.15,-72.32
1766237883725,6.21,-1.83,-6.67,640.859,279.785,1067.002,9.41,33.34,-95.26
1766237883735,8.91,-5.22,-12.50,559.805,321.289,1082.627,6.98,23.15,-119.82
1766237883746,12.09,-8.77,-20.56,650.137,349.609,1012.803,6.29,13.46,-161.76
1766237883755,14.27,-6.75,-30.36,200.430,266.602,956.162,2.10,10.02,-202.13
1766237883766,15.69,1.04,-41.57,-244.395,306.641,939.561,0.60,13.02,-232.63
1766237883776,13.58,12.58,-53.88,-878.184,174.316,1047.959,9.60,14.65,-243.82
1766237883786,9.97,19.88,-67.13,-727.793,88.379,1175.400,36.66,14.34,-245.82
1766237883796,2.13,24.41,-82.04,-931.406,-400.879,1638.291,44.54,21.59,-237.69
1766237883806,-10.57,27.39,-100.00,-928.965,-1201.660,1324.326,56.48,47.34,-235.57
1766237883816,-26.89,26.55,-120.88,-641.367,-1897.949,855.576,55.54,89.77,-245.82
1766237883826,-42.74,21.16,-141.32,-367.930,-2249.512,483.506,37.73,128.34,-252.51
1766237883837,-53.64,8.30,-157.66,431.875,-1819.336,361.436,10.41,133.71,-262.88
1766237883846,-61.58,-7.46,-169.76,732.168,-1437.988,-98.037,-11.02,117.02,-264.94
1766237883856,-62.59,-23.19,-179.13,690.176,-783.203,269.150,-41.96,85.90,-256.38
1766237883866,-57.85,-36.73,170.72,654.531,-422.363,400.986,-53.59,51.40,-237.69
1766237883876,-48.81,-45.44,158.40,579.824,-303.223,552.842,-56.71,17.77,-208.19
1766237883886,-33.19,-48.13,141.44,443.105,-10.254,946.396,-54.21,-6.91,-176.26
1766237883896,-17.80,-45.62,124.97,136.953,229.492,1021.592,-50.65,-26.23,-147.63
1766237883906,-3.57,-43.93,109.54,319.570,515.625,1110.947,-44.52,-47.41,-141.26
1766237883916,8.01,-39.83,96.08,163.320,610.840,1129.990,-39.52,-59.73,-137.51
1766237883926,16.94,-35.53,84.31,202.383,635.742,1203.721,-27.46,-73.29,-146.44
1766237883936,22.96,-30.13,74.29,95.938,642.090,1288.682,-21.46,-77.29,-148.94
1766237883946,26.48,-23.56,65.65,-116.953,583.984,1314.072,-12.21,-80.29,-151.38
1766237883956,28.22,-17.11,57.90,-218.516,615.234,1415.146,-8.77,-76.48,-147.13
1766237883966,28.86,-11.08,51.27,-293.223,637.695,1529.893,2.35,-62.98,-133.44
1766237883976,28.55,-4.07,46.06,-605.234,615.234,1625.107,12.41,-43.16,-112.01
1766237883986,29.07,1.05,41.82,-459.238,685.547,1617.295,33.29,-23.41,-92.94
1766237883996,30.34,4.93,38.46,-369.395,705.078,1505.479,48.60,-8.91,-76.88
1766237884012,32.06,7.71,35.66,-254.160,628.906,1212.510,55.91,-1.10,-66.76
1766237884068,33.16,11.01,33.80,-298.594,456.543,897.080,51.73,5.52,-46.38
1766237884127,32.10,8.49,32.16,39.785,238.281,595.322,33.48,-4.04,-27.07
1766237884150,29.26,1.29,30.85,283.438,147.461,558.701,11.35,-16.10,-17.19
1766237884153,27.09,-5.74,29.91,509.023,265.137,796.006,-4.27,-18.04,-17.32
1766237884156,27.05,-12.51,28.19,946.523,516.113,1066.514,-1.65,-17.85,-33.38
1766237884159,28.64,-19.03,24.80,1192.129,574.219,1043.076,8.79,-28.04,-60.51
1766237884162,30.41,-25.26,20.22,1035.391,403.809,813.584,7.48,-44.91,-77.94
1766237884165,29.37,-26.49,16.87,468.984,209.961,799.424,2.54,-48.10,-75.44
1766237884168,28.83,-23.17,13.89,292.227,333.008,1255.967,18.73,-31.98,-79.13
1766237884171,26.72,-16.08,12.28,-149.180,209.961,1706.162,31.41,-2.79,-76.01
1766237884174,24.19,-7.72,11.32,-343.027,50.781,1398.545,42.91,25.96,-64.94
1766237884177,20.14,0.83,10.60,-421.641,-151.855,941.025,42.29,32.09,-45.07
1766237884180,12.91,10.44,9.61,-469.980,-380.371,526.475,23.66,42.52,-24.13
1766237884183,4.54,17.17,7.84,-372.812,-545.898,680.771,17.35,65.34,-8.01
1766237884186,-2.61,16.54,5.50,137.930,-540.039,925.889,4.16,80.15,-11.13
1766237884189,-8.63,11.21,3.02,551.992,-579.590,930.771,-5.65,57.52,-21.19
1766237884192,-14.86,7.40,0.63,319.570,-604.492,876.572,-15.65,40.59,-26.26
1766237884195,-20.92,8.41,-1.40,-73.496,-551.758,764.268,-28.46,38.52,-19.01
1766237884198,-24.55,9.31,-2.75,-71.543,-525.879,1031.357,-44.09,46.21,-6.88
1766237884206,-26.92,10.09,-3.14,-13.438,-557.129,1244.736,-50.21,53.96,16.06
1766237884216,-28.56,9.62,-2.52,152.090,-573.730,1198.350,-42.46,51.65,39.12
1766237884226,-28.99,11.67,-0.65,-19.297,-493.652,1160.264,-40.90,55.52,68.87
1766237884236,-26.00,13.46,2.80,63.711,-229.004,1254.990,-34.15,61.40,94.06
1766237884246,-21.08,14.86,7.68,120.352,-56.152,1311.631,-21.96,64.34,112.74
1766237884256,-16.05,16.48,13.76,64.199,-48.340,1255.967,-10.46,67.09,130.81
1766237884266,-9.89,16.57,20.91,159.414,105.469,1243.271,-2.65,66.90,138.49
1766237884275,-3.87,15.76,28.58,159.414,175.781,1175.889,1.79,64.09,140.87
1766237884286,0.90,14.16,36.36,184.316,183.594,1194.443,2.23,64.27,142.99
1766237884296,4.63,14.81,44.40,-71.055,198.730,1265.244,-0.40,66.90,147.24
1766237884306,7.20,16.08,52.67,-193.613,161.133,1292.100,-3.34,70.02,152.18
1766237884316,8.99,17.76,60.98,-292.246,130.859,1301.865,-5.96,72.71,153.31
1766237884326,10.40,19.80,68.97,-379.160,93.750,1296.982,-2.77,74.90,148.24
1766237884336,11.73,23.50,77.31,-554.453,56.152,1207.627,-4.34,85.21,151.56
1766237884346,12.27,26.91,85.40,-608.652,-43.945,1280.869,-6.40,93.71,152.12
1766237884356,12.90,28.70,93.15,-457.773,-14.648,1269.150,-10.34,100.15,144.56
1766237884366,12.90,31.34,100.28,-527.598,-62.012,1228.623,-13.77,108.15,134.24
1766237884376,12.17,34.21,106.63,-548.105,-96.680,1259.385,-22.90,118.52,120.74
1766237884386,10.25,38.19,112.06,-663.340,-223.145,1297.471,-31.59,131.65,111.56
1766237884396,10.14,40.39,117.94,-465.098,-26.855,1274.521,-39.21,142.46,98.06
1766237884406,8.41,44.88,122.91,-677.988,-187.988,1283.799,-47.96,160.71,93.62
1766237884416,7.66,46.57,127.68,-312.266,-57.617,1115.830,-49.77,170.52,78.37
1766237884426,9.47,47.29,133.87,-214.121,112.793,1132.920,-49.02,178.65,69.49
1766237884436,12.26,44.99,140.58,169.668,280.273,1284.775,-50.09,176.90,58.81
1766237884446,15.56,40.69,146.91,520.254,442.871,1331.650,-38.84,161.27,45.87
1766237884456,16.75,35.98,151.39,729.727,479.004,1698.838,-32.77,148.02,33.68
1766237884466,16.59,30.79,154.13,792.715,338.867,1532.822,-20.27,132.46,19.12
1766237884476,13.65,26.76,154.76,542.227,23.438,1359.971,-11.09,123.40,6.68
1766237884486,8.90,25.27,154.15,260.977,-199.707,1272.568,-6.27,124.59,0.99
1766237884496,5.09,21.21,152.59,599.844,-201.172,1139.756,0.85,115.59,-20.13
1766237884506,1.32,17.03,149.93,646.230,-242.188,1206.162,-0.21,104.02,-42.32
1766237884516,-0.49,10.94,146.24,841.055,-94.727,1112.900,1.85,82.27,-74.51
1766237884526,-1.59,5.44,141.30,662.832,-50.293,1010.850,0.29,67.84,-103.51
1766237884536,-2.60,1.56,134.45,461.660,-57.129,963.975,-5.40,58.15,-144.69
1766237884546,-2.47,-1.03,125.42,353.750,16.113,923.936,-11.34,53.09,-192.63
1766237884556,-1.08,-0.11,114.56,112.539,134.277,948.350,-17.90,50.34,-233.19
1766237884566,0.28,4.97,102.71,-212.168,194.336,886.826,-15.52,46.71,-262.01
1766237884576,0.91,10.01,90.42,-356.699,278.809,1063.584,-8.71,42.77,-276.69
1766237884586,-2.35,14.79,77.40,-542.246,-22.461,1293.564,-2.71,45.27,-278.51
1766237884596,-10.07,21.53,63.16,-976.328,-574.707,1219.346,3.60,67.46,-270.69
1766237884607,-20.60,27.43,47.20,-1142.344,-880.371,1136.826,-0.15,101.59,-261.57
1766237884616,-33.28,29.12,29.66,-785.410,-1097.168,983.018,-2.34,134.52,-249.01
1766237884626,-42.54,20.65,13.94,125.234,-941.895,876.572,-3.52,137.90,-253.01
1766237884636,-45.00,4.70,1.14,1037.344,-724.121,830.186,3.29,111.34,-267.51
1766237884646,-45.15,-11.22,-11.13,933.828,-658.691,625.107,-12.77,84.52,-268.32
1766237884656,-43.84,-23.54,-22.57,649.160,-641.602,490.342,-16.52,60.09,-251.26
1766237884666,-39.06,-34.77,-34.67,667.715,-438.965,491.807,-28.65,35.77,-237.69
1766237884676,-29.41,-41.69,-48.83,586.172,-235.840,598.740,-30.52,20.84,-207.94
1766237884686,-16.34,-42.08,-64.72,353.262,-2.441,754.502,-37.02,5.21,-175.44
1766237884696,-3.16,-39.67,-80.36,306.387,268.066,924.912,-41.09,-9.98,-156.01
1766237884706,7.07,-34.10,-93.52,90.078,381.836,937.119,-39.77,-24.85,-145.76
1766237884716,16.23,-31.25,-105.98,374.258,592.285,986.436,-35.65,-38.10,-151.19
1766237884727,22.71,-26.63,-116.96,234.609,614.258,1044.541,-30.90,-48.73,-155.69
1766237884737,25.96,-21.42,-126.31,110.098,554.688,1110.459,-26.15,-57.35,-155.76
1766237884747,27.45,-15.86,-134.68,-26.133,560.059,1192.490,-19.77,-58.54,-151.51
1766237884757,27.14,-9.44,-141.91,-284.434,520.996,1289.658,-14.02,-54.16,-138.07
1766237884766,25.99,-3.86,-148.07,-372.324,494.141,1393.174,-4.34,-44.35,-120.94
1766237884776,25.84,0.55,-153.20,-384.531,659.180,1536.729,6.54,-30.54,-102.38
1766237884786,25.92,6.50,-156.63,-736.582,657.227,1566.025,18.85,-9.10,-72.94
1766237884796,27.25,10.59,-158.43,-634.043,830.078,1637.803,29.54,8.90,-46.63
1766237884806,29.98,11.82,-159.05,-293.223,791.992,1373.643,48.29,15.71,-25.26
1766237884816,31.57,12.62,-158.76,-232.188,433.594,850.693,45.10,11.65,3.12
1766237884829,31.65,5.41,-158.72,229.238,258.789,550.400,27.85,-2.79,11.93
1766237884836,29.25,-1.96,-158.56,339.590,175.781,626.572,13.04,-8.66,14.43
1766237884846,27.49,-7.87,-158.25,622.793,333.496,1023.057,7.35,-0.29,5.06
1766237884862,27.84,-13.30,-158.89,1045.645,584.473,1291.123,16.41,2.09,-16.07
1766237884871,29.88,-19.11,-161.12,1231.191,591.309,1117.295,29.91,-11.16,-40.76
1766237884886,31.43,-24.45,-164.06,1022.695,349.609,912.705,35.98,-27.73,-57.38
1766237884891,27.97,-24.30,-164.55,394.766,12.207,930.283,34.66,-21.98,-55.88
1766237884897,23.83,-20.77,-164.77,190.664,-53.223,1082.627,32.10,-4.35,-59.82
1766237884913,20.43,-14.69,-164.99,79.336,-16.113,1293.564,28.98,37.84,-57.76
1766237884916,18.91,-10.09,-166.19,134.512,85.449,1264.268,34.16,42.02,-59.76
1766237884929,16.45,-9.24,-167.36,311.758,-54.199,891.709,36.35,46.40,-57.82
1766237884937,10.02,-13.24,-168.04,482.168,-390.137,487.412,28.98,39.02,-57.82
1766237884949,-0.10,-15.99,-167.50,411.855,-769.043,266.221,13.41,36.77,-51.88
1766237884958,-11.19,-18.15,-166.39,441.641,-933.594,279.893,-9.59,34.40,-41.88
1766237884970,-19.04,-22.14,-166.39,675.527,-726.074,589.951,-38.46,19.40,-42.76
1766237884977,-18.89,-22.82,-169.00,523.184,-223.145,1269.639,-52.84,-1.10,-38.19
1766237884988,-17.05,-17.61,-171.19,-145.762,-28.809,1579.697,-50.40,-5.04,-15.94
1766237884997,-15.06,-10.61,-172.17,-440.195,36.621,1492.783,-38.52,3.27,3.24
1766237885007,-14.19,-2.45,-171.45,-645.762,-105.957,1493.271,-24.59,19.90,28.99
1766237885017,-15.04,6.14,-169.44,-681.406,-326.660,1280.869,-18.84,38.21,55.49
1766237885027,-16.63,13.24,-166.45,-549.082,-470.215,1182.236,-17.27,50.09,83.74
1766237885037,-16.87,15.52,-162.66,-109.141,-395.996,1173.447,-16.46,57.59,99.93
1766237885048,-15.15,13.74,-158.15,297.109,-224.121,1201.768,-14.59,61.96,107.49
1766237885057,-12.99,13.36,-153.09,170.156,-181.641,1177.842,-7.27,62.46,117.06
1766237885067,-10.01,14.59,-147.20,8.535,-83.008,1168.564,-6.02,64.40,128.37
1766237885078,-6.10,15.39,-139.82,-8.555,17.090,1165.146,-4.15,61.65,151.68
1766237885090,-2.56,16.76,-132.54,-121.836,58.594,1175.889,-5.59,62.27,144.93
1766237885096,0.82,18.64,-124.65,-247.812,70.801,1227.158,-3.52,62.84,155.43
1766237885106,3.87,19.15,-116.44,-183.848,72.754,1208.604,-2.59,63.40,161.68
1766237885116,6.65,18.79,-108.17,-160.410,100.586,1296.006,-0.34,62.90,163.24
1766237885126,9.38,17.00,-100.13,-50.547,186.035,1314.072,-0.27,59.77,157.74
1766237885136,10.93,17.00,-92.49,-213.145,126.953,1238.389,-0.09,60.77,153.43
1766237885146,12.06,19.93,-84.78,-429.453,110.840,1263.779,-5.02,85.34,150.99
1766237885156,12.70,23.33,-77.45,-551.523,38.086,1136.338,-7.15,77.02,147.81
1766237885166,14.64,24.11,-70.12,-344.492,179.199,1118.271,-7.71,79.27,134.87
1766237885181,15.28,25.42,-63.74,-397.227,107.422,1101.670,-9.34,80.71,122.24
1766237885187,15.05,27.22,-58.03,-441.660,70.312,1117.295,-15.90,86.21,111.18
1766237885197,14.04,28.45,-53.06,-384.531,18.555,1130.479,-18.71,89.96,100.62
1766237885206,11.97,30.36,-48.78,-442.148,-80.078,1182.725,-24.15,96.27,95.18
1766237885216,9.62,31.49,-44.93,-307.871,-88.379,1122.178,-31.71,105.90,86.18
1766237885227,6.14,32.41,-41.93,-229.746,-169.434,1057.236,-38.84,112.84,79.49
1766237885236,2.46,33.29,-39.46,-150.645,-185.547,942.979,-42.65,123.77,72.74
1766237885246,1.80,30.40,-36.14,192.617,5.371,981.064,-43.52,122.40,58.87
1766237885256,1.78,26.55,-32.92,403.066,93.262,1160.264,-43.02,116.77,49.87
1766237885266,2.93,21.02,-29.96,850.820,312.988,1402.939,-37.90,99.90,37.31
1766237885276,3.58,14.23,-28.38,1045.156,286.133,1322.861,-26.96,77.46,18.31
1766237885286,3.02,9.08,-27.94,636.465,108.398,1136.338,-20.71,69.34,3.49
1766237885296,1.02,6.46,-28.83,423.086,-37.598,1176.377,-18.90,68.59,-19.13
1766237885306,-2.13,5.21,-31.22,357.168,-231.445,1344.834,-13.59,65.77,-45.13
1766237885316,-2.81,3.14,-35.53,455.801,-60.547,1387.803,-5.96,62.52,-85.88
1766237885326,-0.19,-2.85,-41.22,888.418,181.152,1247.666,12.73,39.59,-111.38
1766237885336,3.00,-7.51,-48.74,749.258,166.504,1287.705,20.54,19.52,-145.76
1766237885346,7.53,-12.75,-59.22,774.648,183.594,1059.189,27.41,-1.66,-196.19
1766237885356,10.98,-14.87,-71.25,487.539,44.922,893.174,28.91,-10.04,-234.63
1766237885367,16.82,-14.34,-85.45,383.047,205.566,897.080,34.29,-18.48,-268.32
1766237885377,21.94,-11.02,-100.26,239.492,259.766,874.131,35.35,-27.98,-288.63
1766237885387,21.03,-8.06,-114.63,208.242,-4.883,1124.619,33.29,-49.85,-298.44
1766237885397,13.41,-1.73,-128.91,-457.773,-682.617,1007.432,32.41,-60.10,-288.63
1766237885407,4.45,5.76,-142.39,-1235.117,-1177.246,1054.307,17.48,-32.41,-250.94
1766237885417,-5.62,11.89,-155.10,-1236.582,-1356.445,1052.842,14.35,9.96,-218.32
1766237885427,-15.34,14.70,-167.72,-764.414,-1350.098,1085.068,27.73,48.27,-204.01
1766237885437,-24.86,13.18,-179.87,-262.949,-1127.441,961.533,2.29,70.59,-197.63
1766237885447,-31.41,5.57,169.26,248.281,-822.754,715.439,0.35,68.02,-202.26
1766237885457,-33.78,-6.46,159.71,580.801,-548.828,606.064,-13.21,47.27,-214.13
1766237885467,-31.18,-18.82,149.83,693.105,-285.645,623.643,-20.02,25.34,-225.13
1766237885477,-26.25,-27.03,139.29,488.516,-257.324,656.846,-17.46,1.77,-223.38
1766237885487,-21.83,-26.23,129.34,39.785,-274.902,717.881,-22.90,-8.10,-204.69
1766237885497,-15.81,-21.83,119.39,-208.750,-42.480,935.166,-31.96,-12.04,-182.32
1766237885507,-10.28,-16.98,110.15,-269.297,143.066,921.494,-41.90,-17.04,-167.51
1766237885517,-4.44,-14.46,101.59,-96.934,290.527,889.268,-38.71,-23.85,-153.01
1766237885527,1.95,-13.93,93.43,61.270,524.414,995.225,-35.59,-30.04,-141.63
1766237885537,8.43,-12.82,85.58,30.508,740.234,1063.096,-32.15,-36.98,-133.51
1766237885547,13.41,-10.51,78.40,-81.797,688.477,1079.697,-24.09,-44.85,-126.32
1766237885557,17.22,-8.30,71.85,-88.145,754.883,1265.244,-15.27,-46.41,-119.07
1766237885567,19.49,-4.26,66.22,-347.910,743.164,1402.939,-9.59,-41.41,-108.01
1766237885577,21.55,-0.83,61.34,-338.633,812.012,1591.416,7.10,-30.79,-98.44
1766237885586,23.15,4.88,57.96,-742.930,775.879,1676.865,23.54,-9.66,-76.94
1766237885597,25.44,10.30,56.25,-866.465,873.047,1852.646,45.04,14.21,-50.63
1766237885607,28.54,13.83,55.71,-597.422,810.059,1568.955,59.91,26.21,-30.07
1766237885616,30.66,17.26,56.04,-459.727,430.176,914.658,56.16,25.02,-5.13
1766237885626,29.52,13.23,55.88,39.297,150.391,497.666,36.04,14.21,6.93
1766237885636,25.63,4.86,56.32,324.453,31.250,537.217,13.48,10.90,16.31
1766237885646,22.98,-2.43,57.26,607.168,142.090,876.572,5.35,17.02,10.49
1766237885657,22.75,-9.65,56.97,1253.652,369.141,1203.721,13.66,17.46,-19.57
1766237885667,23.20,-15.50,55.25,1202.383,342.773,1164.170,21.85,8.52,-47.69
1766237885677,23.31,-19.48,53.08,894.277,202.148,1055.771,29.73,-0.04,-60.82
1766237885686,21.60,-18.70,51.94,409.414,68.848,1035.752,31.85,7.96,-57.07
1766237885697,21.84,-17.37,49.93,441.641,226.562,1132.920,32.79,15.84,-64.51
1766237885707,22.32,-12.52,48.20,161.855,319.824,1266.709,33.54,34.15,-64.51
1766237885717,23.38,-9.75,46.41,306.875,332.031,1083.604,37.79,48.15,-66.01
1766237885726,22.20,-10.46,45.00,426.992,68.359,774.521,40.16,48.65,-66.26
1766237885737,14.38,-12.63,45.39,304.922,-328.613,402.451,29.29,47.09,-56.69
1766237885747,4.76,-16.79,46.69,520.742,-739.258,268.662,15.04,38.09,-45.82
1766237885758,-6.17,-21.34,48.72,744.375,-1121.094,309.678,-9.09,21.40,-41.82
1766237885770,-14.71,-24.59,49.62,776.113,-849.121,811.143,-41.90,7.40,-43.19
1766237885781,-15.09,-29.16,46.82,891.836,-246.094,1087.998,-41.27,-18.85,-57.69
1766237885789,-13.39,-26.46,43.59,156.484,-167.480,1328.721,-26.59,-28.98,-53.07
1766237885798,-13.31,-17.60,42.53,-770.762,-266.113,1673.447,-22.65,-8.85,-19.88
1766237885810,-14.25,-6.59,44.29,-1154.551,-361.328,1563.584,-12.77,16.84,34.93
1766237885819,-13.63,3.26,48.41,-795.664,-236.328,1365.830,-2.46,31.15,89.56
1766237885827,-12.35,9.13,54.40,-299.082,-233.887,1161.240,2.60,44.27,130.93
1766237885838,-9.82,9.05,61.26,144.277,-144.531,1043.076,8.98,44.84,146.62
1766237885848,-7.92,5.30,68.94,505.605,-194.824,1115.830,18.85,37.09,162.37
1766237885857,-6.97,2.27,76.68,392.812,-197.266,1085.068,18.48,24.40,161.06
1766237885867,-7.58,4.03,84.45,-23.691,-257.812,998.643,13.23,20.77,160.74
1766237885877,-7.00,10.00,92.76,-413.340,-218.262,1044.053,9.04,26.90,168.06
1766237885887,-3.87,14.09,101.96,-369.395,-68.848,1114.365,8.73,31.71,178.56
1766237885899,0.38,15.84,111.72,-285.898,41.504,1201.768,8.35,35.46,182.93
1766237885907,5.05,16.72,121.47,-375.254,180.176,1383.896,8.16,32.59,177.43
1766237885919,7.95,19.71,130.67,-657.969,75.195,1297.471,6.98,38.46,173.37
1766237885927,10.40,23.22,139.58,-755.137,44.434,1242.295,5.10,49.52,168.31
1766237885938,13.31,25.22,148.21,-618.418,127.930,1236.436,3.79,62.21,157.68
1766237885947,15.09,27.22,155.88,-594.004,84.961,1162.217,0.16,70.09,143.62
1766237885957,16.28,28.79,162.89,-573.496,110.840,1221.299,-7.34,78.71,129.37
1766237885968,16.33,30.65,168.90,-554.453,51.758,1195.908,-11.65,88.46,114.31
1766237885977,15.69,32.97,174.13,-558.848,35.156,1187.607,-19.84,99.52,98.12
1766237885987,14.79,35.23,178.77,-544.199,40.527,1256.943,-25.46,111.96,83.56
1766237885997,14.31,37.38,-176.91,-528.574,94.238,1281.357,-28.15,121.34,69.43
1766237886007,12.63,39.20,-174.30,-416.270,69.336,1248.643,-31.46,132.46,40.31
1766237886017,10.18,39.31,-172.36,-173.594,-4.883,1131.943,-32.65,139.59,37.56
1766237886027,8.46,39.46,-170.60,-112.559,41.504,1067.490,-31.96,149.40,24.99
1766237886037,8.61,37.61,-168.34,111.074,188.477,1156.357,-28.84,147.09,13.12
1766237886047,9.78,34.31,-165.74,361.562,372.070,1356.064,-30.40,137.27,6.43
1766237886057,11.39,28.74,-163.54,764.883,504.395,1380.967,-24.09,112.52,-0.76
1766237886067,11.49,22.54,-162.40,738.516,322.266,1256.455,-18.40,93.02,-1.44
1766237886077,10.49,16.20,-162.01,713.613,171.875,1140.244,-12.96,78.40,-3.69
1766237886087,8.02,11.09,-162.44,587.148,12.695,1148.057,-11.21,68.77,-11.94
1766237886097,5.89,5.97,-164.03,687.246,-20.508,1222.764,-4.71,56.77,-35.38
1766237886107,4.99,2.12,-166.84,582.266,53.223,1224.717,-0.71,48.40,-62.44
1766237886117,5.99,-2.22,-171.26,679.922,167.969,1227.158,9.66,32.21,-94.26
1766237886127,6.11,-2.36,-176.77,233.145,48.340,1198.838,14.23,23.96,-118.19
1766237886137,8.08,-5.72,175.82,588.613,155.762,1158.799,23.85,14.65,-155.57
1766237886147,9.70,-6.83,166.75,413.809,113.770,1121.689,22.79,9.59,-192.82
1766237886157,12.96,-6.59,155.59,344.961,253.418,1079.697,26.79,-0.16,-236.44
1766237886167,15.02,-2.62,143.27,20.742,179.688,942.979,32.98,-11.16,-270.44
1766237886177,11.87,3.87,130.25,-358.652,-175.781,1023.545,34.79,-21.79,-289.76
1766237886187,4.86,11.41,116.66,-951.914,-690.918,1167.588,23.41,-11.73,-285.94
1766237886197,-4.04,18.34,102.51,-1351.328,-1200.684,1091.416,32.54,12.65,-269.88
1766237886207,-15.05,24.32,87.68,-1438.730,-1643.066,1019.150,29.73,63.02,-245.88
1766237886217,-27.42,26.03,71.79,-799.082,-1692.383,1023.057,21.91,109.96,-230.01
1766237886227,-39.13,20.61,56.42,42.715,-1499.512,775.498,4.79,125.96,-229.57
1766237886237,-46.36,8.25,44.07,708.730,-1149.414,550.889,-4.15,110.90,-234.44
1766237886247,-49.89,-7.47,34.44,1004.141,-829.590,401.475,-23.65,80.02,-235.01
1766237886257,-50.22,-19.27,25.85,504.629,-672.363,491.318,-35.27,49.59,-226.01
1766237886267,-46.61,-31.03,16.96,495.840,-410.645,465.928,-33.84,19.27,-219.82
1766237886277,-38.66,-40.69,5.75,584.219,-247.070,584.580,-37.77,3.15,-198.38
1766237886287,-25.59,-45.74,-8.89,429.434,13.184,714.463,-44.21,-25.73,-169.38
1766237886297,-8.40,-47.04,-27.43,400.137,364.746,855.576,-46.90,-26.73,-152.07
1766237886307,6.43,-43.58,-44.28,216.055,560.547,1004.014,-47.59,-42.66,-137.82
1766237886317,18.46,-39.33,-58.83,248.281,725.098,1038.193,-39.96,-60.79,-133.88
1766237886327,27.26,-33.63,-70.92,155.020,867.676,1156.846,-31.15,-71.85,-131.88
1766237886337,32.34,-26.50,-80.47,-67.148,876.465,1256.943,-22.77,-76.35,-128.44
1766237886348,34.79,-19.45,-88.41,-181.406,856.445,1350.205,-12.77,-75.79,-125.44
1766237886357,34.93,-11.65,-95.13,-500.254,780.762,1444.932,-6.09,-69.54,-116.57
1766237886367,34.79,-5.33,-100.96,-520.762,920.898,1671.494,6.41,-55.60,-106.19
1766237886377,34.43,1.28,-105.64,-724.863,820.312,1655.381,24.98,-35.79,-90.19
1766237886387,34.86,6.21,-109.38,-609.141,842.285,1680.283,47.29,-18.54,-77.13
1766237886397,35.94,10.97,-112.01,-674.570,763.184,1613.389,69.98,-0.04,-58.82
1766237886407,37.18,13.25,-113.96,-392.344,703.125,1390.244,73.04,7.27,-44.51
1766237886417,36.92,14.21,-115.83,-227.793,351.562,901.475,70.98,1.27,-28.26
1766237886427,31.45,13.88,-118.17,-95.957,-7.324,538.682,50.35,-3.73,-5.69
1766237886437,25.04,6.36,-119.61,266.348,-100.586,549.912,22.54,-3.98,9.18
1766237886447,22.90,-4.45,-120.88,971.914,51.758,743.760,11.85,-11.60,-11.01
1766237886457,22.16,-12.83,-123.07,1192.617,190.918,960.068,10.91,-6.48,-43.76
1766237886467,22.42,-19.37,-126.15,1180.410,220.215,970.811,14.35,-6.91,-65.44
1766237886477,22.47,-24.30,-129.53,1029.531,148.926,993.271,16.10,-17.73,-76.07
1766237886487,19.72,-22.63,-131.33,400.625,-27.344,1122.178,18.66,-6.79,-76.51
1766237886497,17.39,-17.20,-133.03,83.730,-37.598,1212.021,27.85,13.52,-74.01
1766237886507,14.96,-9.20,-134.23,-223.398,-61.523,1307.725,28.48,39.21,-56.51
1766237886517,12.66,-4.71,-135.56,55.410,-79.590,1190.537,31.35,55.15,-53.07
1766237886527,6.26,-2.24,-136.64,112.051,-366.211,745.713,26.41,62.59,-44.63
1766237886537,-1.59,-3.72,-137.96,343.984,-494.629,558.213,9.29,69.40,-40.01
1766237886547,-6.41,-9.46,-139.60,836.660,-490.723,583.115,4.29,65.27,-40.51
1766237886557,-14.32,-15.64,-140.34,722.891,-629.395,336.533,-20.77,42.21,-38.13
1766237886567,-15.75,-16.53,-141.87,434.805,-247.559,939.072,-36.90,26.90,-25.01
1766237886577,-13.96,-13.02,-143.21,61.758,4.395,1271.592,-37.84,15.34,-3.01
1766237886587,-12.95,-7.54,-143.16,-184.824,-46.387,1088.486,-28.40,12.09,16.43
1766237886597,-14.05,-0.41,-141.98,-455.332,-257.324,1258.896,-27.46,23.02,35.93
1766237886608,-15.98,6.25,-139.82,-491.465,-421.387,1336.045,-28.96,36.52,60.99
1766237886618,-16.11,9.81,-136.48,-187.266,-279.297,1221.787,-26.65,42.59,84.06
1766237886627,-14.81,11.94,-131.90,-96.445,-224.609,1197.861,-15.15,41.65,106.31
1766237886637,-13.78,13.87,-126.46,-81.309,-251.465,1025.986,-8.90,44.34,127.06
1766237886648,-11.93,13.59,-120.18,101.797,-200.195,1088.486,-6.96,48.90,142.06
1766237886657,-8.44,13.38,-113.18,93.496,-24.902,1245.225,-6.27,50.40,148.18
1766237886667,-4.63,14.29,-105.72,-31.016,81.543,1159.287,-9.65,55.27,152.18
1766237886677,-0.06,13.91,-97.94,16.836,217.773,1121.689,-8.02,52.84,151.06
1766237886687,3.35,14.76,-90.25,-141.855,184.082,1093.369,-8.21,51.52,149.81
1766237886697,5.95,17.97,-82.36,-411.875,157.227,1105.576,-10.96,54.77,154.06
1766237886707,8.62,19.26,-74.12,-348.398,190.430,1241.807,-10.46,58.40,158.43
1766237886717,11.09,20.54,-65.72,-440.195,199.219,1364.854,-7.21,62.21,161.74
1766237886727,13.14,20.37,-57.55,-317.148,183.105,1394.150,-2.90,66.27,159.37
1766237886737,15.13,20.25,-49.50,-297.617,221.680,1301.377,-3.09,71.27,153.74
1766237886747,15.54,22.40,-41.78,-460.703,71.777,1211.045,-5.77,85.21,152.87
1766237886757,16.29,24.92,-33.94,-472.422,98.633,1119.736,-11.52,94.65,148.68
1766237886767,16.77,24.39,-26.65,-202.402,126.465,1102.646,-15.65,96.65,135.93
1766237886777,15.56,25.29,-20.35,-304.453,17.090,1088.486,-19.96,96.02,126.18
1766237886787,14.18,25.46,-14.55,-230.723,9.277,1122.666,-22.27,96.90,116.18
1766237886797,12.37,25.90,-9.20,-221.934,-24.414,1130.479,-26.02,100.15,108.81
1766237886807,10.29,28.16,-4.09,-362.559,-80.078,1169.541,-29.71,107.84,105.37
1766237886817,8.17,30.29,0.55,-294.199,-106.445,1067.002,-30.52,117.27,97.93
1766237886827,6.78,30.92,4.84,-140.879,-53.223,1027.451,-31.71,123.52,84.87
1766237886837,6.19,29.78,8.95,37.344,22.461,1186.143,-33.27,125.15,71.87
1766237886847,6.42,25.14,12.40,500.234,138.672,1296.494,-28.02,108.96,51.81
1766237886857,5.79,20.48,14.85,530.996,86.914,1369.736,-22.40,93.84,40.37
1766237886867,4.88,14.16,16.14,781.973,46.387,1209.092,-14.27,76.40,20.43
1766237886877,1.91,11.93,16.30,313.711,-149.902,1249.131,-13.59,74.71,7.93
1766237886887,-0.77,9.24,15.33,435.781,-165.527,1285.264,-13.96,73.65,-15.82
1766237886897,-2.14,6.19,12.76,540.762,-117.188,1402.451,-4.84,66.77,-50.32
1766237886907,-1.45,1.93,7.87,746.328,45.410,1457.139,6.04,56.34,-100.82
1766237886917,0.88,-2.43,1.32,782.461,141.113,1426.865,20.10,43.40,-134.07
1766237886927,4.22,-7.26,-6.84,781.973,139.160,1260.850,33.91,22.40,-164.26
1766237886937,6.85,-9.62,-16.92,506.582,31.250,1057.236,33.73,15.34,-206.07
1766237886947,7.98,-9.65,-28.66,310.781,-44.922,843.857,24.41,15.71,-245.57
1766237886957,8.18,-4.42,-41.93,-22.715,-37.109,671.006,21.41,17.71,-276.38
1766237886967,7.74,3.16,-56.52,-263.926,5.859,739.365,21.29,10.71,-291.63
1766237886977,3.54,6.64,-71.84,-222.910,-151.367,1094.834,14.73,2.09,-293.94
1766237886987,-5.13,9.72,-88.35,-387.461,-537.598,910.752,20.04,1.34,-292.38
1766237886998,-15.34,14.03,-104.93,-921.641,-966.797,836.045,18.60,21.59,-274.51
1766237887008,-24.91,14.82,-120.61,-758.066,-1119.141,960.068,18.73,50.84,-256.76
1766237887018,-32.33,11.09,-134.77,-341.562,-1112.305,996.689,15.41,63.59,-247.94
1766237887027,-37.92,1.91,-147.61,190.176,-985.352,738.389,9.41,60.90,-251.32
1766237887038,-39.55,-10.33,-158.99,543.203,-810.547,619.736,8.85,48.02,-252.88
1766237887048,-38.40,-17.67,-169.54,266.348,-766.602,739.854,-1.77,29.65,-252.51
1766237887058,-35.64,-26.38,179.91,439.199,-605.469,638.779,-7.02,10.90,-253.32
1766237887068,-32.68,-26.02,170.04,-69.102,-543.457,686.143,-19.34,5.09,-231.51
1766237887078,-23.83,-29.36,157.64,274.648,-104.004,770.127,-27.84,-2.54,-213.88
1766237887088,-12.93,-30.77,144.41,284.414,163.086,865.342,-30.15,-18.98,-195.26
1766237887098,-2.25,-28.61,131.38,125.723,371.582,892.197,-36.15,-27.98,-182.01
1766237887108,7.48,-26.39,119.00,203.359,645.508,1037.217,-36.34,-39.98,-176.38
1766237887118,15.19,-22.61,107.93,95.938,727.051,1071.396,-33.71,-48.98,-169.94
1766237887128,21.16,-19.28,97.80,153.066,824.219,1180.283,-27.02,-57.48,-168.07
1766237887138,24.62,-13.05,89.10,-218.027,749.023,1219.834,-19.90,-59.04,-162.63
1766237887148,26.37,-6.32,81.50,-388.438,722.168,1286.240,-9.02,-52.16,-155.26
1766237887157,27.08,-0.17,75.08,-505.137,832.031,1558.213,0.60,-36.23,-138.88
1766237887167,27.83,5.69,69.96,-625.742,895.020,1680.283,18.10,-15.16,-118.38
1766237887177,29.43,10.53,66.15,-591.074,979.980,1697.373,37.29,5.77,-98.13
1766237887188,31.49,14.38,63.99,-520.273,892.578,1529.404,50.73,23.65,-68.07
1766237887197,33.34,16.64,63.17,-337.168,589.355,977.646,45.48,23.46,-34.63
1766237887207,33.45,12.00,62.56,101.309,305.664,549.424,24.04,7.90,-15.38
1766237887217,32.54,2.74,62.24,445.059,276.855,556.260,7.29,-7.91,-6.26
1766237887227,31.84,-5.35,62.03,697.500,438.477,843.857,4.23,-10.48,-4.88
1766237887238,32.78,-11.73,61.05,1053.945,742.676,1257.920,21.60,-14.04,-18.19
1766237887248,34.44,-18.57,59.13,1263.906,634.766,1151.475,36.60,-28.10,-33.32
1766237887258,36.62,-26.48,56.06,1303.457,381.836,862.412,47.29,-51.41,-49.76
1766237887267,34.10,-29.85,55.30,672.109,38.574,910.752,44.60,-49.04,-49.76
1766237887278,30.13,-29.00,55.97,449.941,-52.734,1152.939,47.91,-31.04,-51.32
1766237887288,26.44,-24.55,57.14,195.547,-52.246,1256.455,52.91,-1.48,-49.82
1766237887297,24.52,-19.44,57.74,176.504,61.523,1315.537,57.79,22.40,-46.69
1766237887308,20.21,-13.74,58.89,-28.574,-127.930,878.037,47.91,26.34,-37.07
1766237887317,9.40,-12.17,61.36,7.559,-801.758,304.307,35.73,26.65,-27.51
1766237887328,-1.69,-12.08,63.07,258.535,-1350.586,373.154,22.60,36.21,-34.19
1766237887338,-13.27,-13.89,63.66,523.672,-1560.059,396.104,-9.96,25.71,-51.44
1766237887348,-21.82,-15.64,62.39,499.746,-960.449,849.717,-53.40,21.40,-64.32
1766237887358,-20.89,-13.95,58.69,112.051,-205.566,1425.400,-58.90,9.59,-60.19
1766237887368,-19.61,-8.02,56.15,-318.125,-140.625,1212.998,-42.90,16.90,-37.88
1766237887378,-19.87,0.92,55.41,-755.137,-285.156,1414.170,-38.77,40.02,-2.94
1766237887388,-20.54,7.79,56.53,-482.188,-343.262,1260.850,-35.34,47.52,38.49
1766237887398,-22.38,14.69,59.72,-444.590,-468.262,1038.682,-34.21,54.59,89.37
1766237887408,-21.15,14.21,64.86,188.711,-306.152,1072.373,-28.96,53.52,123.93
1766237887418,-18.03,12.01,71.96,434.805,-162.109,1140.244,-22.90,49.77,155.12
1766237887428,-13.50,8.47,80.18,575.918,-0.977,1215.439,-10.27,34.77,167.43
1766237887437,-9.12,5.34,88.61,424.551,30.762,1163.193,3.48,23.21,169.18
1766237887447,-3.38,4.85,97.34,125.723,225.586,1150.986,8.16,21.65,169.49
1766237887457,1.59,7.75,107.21,-245.859,259.766,1228.135,7.98,30.65,187.31
1766237887468,6.15,10.75,117.73,-424.570,318.359,1355.088,5.85,36.65,195.31
1766237887478,10.69,13.64,128.31,-506.113,320.801,1240.830,10.48,43.90,193.37
1766237887488,13.82,14.16,138.77,-326.914,228.516,1244.736,13.16,52.84,198.24
1766237887498,15.06,15.31,149.00,-421.641,120.117,1365.342,9.60,62.09,200.62
1766237887508,15.89,16.92,158.66,-433.848,107.910,1251.572,3.98,68.46,189.18
1766237887518,16.06,19.29,167.75,-478.281,29.785,1175.400,2.91,75.21,180.93
1766237887528,16.78,18.91,176.46,-213.633,147.949,1202.256,-6.15,82.52,167.06
1766237887538,17.81,20.93,-174.90,-391.367,196.289,1038.682,-15.84,86.34,159.12
1766237887548,18.70,20.37,-167.05,-209.238,229.004,1005.479,-18.84,79.34,143.99
1766237887558,18.14,21.38,-160.07,-346.934,169.434,1093.369,-24.40,77.77,133.31
1766237887568,16.90,21.53,-153.89,-274.668,144.531,1155.869,-29.46,75.96,120.68
1766237887578,14.74,24.29,-148.13,-475.352,20.996,1199.814,-32.84,87.65,116.68
1766237887588,12.19,29.00,-142.72,-604.258,-92.773,1132.432,-37.71,105.46,113.43
1766237887598,11.09,32.26,-137.32,-434.824,6.348,1084.580,-39.84,120.21,100.06
1766237887608,10.92,33.91,-132.07,-281.504,82.031,1097.764,-40.15,131.40,85.06
1766237887618,11.83,31.24,-127.11,173.086,236.328,1297.959,-35.59,130.46,66.93
1766237887628,12.42,26.32,-123.52,557.363,286.133,1367.783,-24.02,115.77,45.49
1766237887638,11.54,21.17,-121.39,695.059,171.875,1350.693,-18.15,107.21,28.93
1766237887648,8.98,16.67,-121.00,623.770,-14.160,1184.189,-10.96,101.02,4.74
1766237887658,4.42,16.06,-121.94,267.812,-196.777,1238.877,-14.71,107.77,-12.26
1766237887668,1.55,13.29,-124.20,551.016,-116.211,1321.885,-9.65,100.84,-42.69
1766237887677,0.66,8.06,-128.34,957.754,36.133,1392.686,-2.21,80.59,-84.63
1766237887687,0.82,3.71,-134.14,732.656,62.500,1383.896,7.54,58.90,-118.19
1766237887698,2.74,-1.80,-141.97,853.262,168.457,1257.920,15.54,35.77,-157.57
1766237887708,3.53,-4.63,-151.54,472.402,14.160,1060.654,13.10,27.02,-195.51
1766237887718,2.93,-2.77,-162.79,79.336,-62.500,978.623,5.60,27.15,-233.69
1766237887728,3.63,0.92,-175.79,-76.426,70.801,914.658,3.10,25.96,-269.01
1766237887737,6.97,3.31,170.32,-18.320,304.688,909.775,13.73,12.09,-293.76
1766237887747,5.64,6.11,156.17,-178.477,10.254,935.166,24.54,-6.54,-297.88
1766237887758,1.52,6.04,141.77,-168.223,-362.305,1212.021,39.66,-20.10,-296.38
1766237887768,-5.79,7.23,127.38,-439.219,-945.312,997.178,45.35,-9.54,-293.13
1766237887778,-13.98,12.01,113.78,-1189.219,-1576.172,920.029,37.91,32.96,-269.01
1766237887788,-23.09,14.62,99.95,-802.988,-1530.762,840.928,31.60,73.02,-252.26
1766237887798,-30.56,8.34,86.97,174.551,-1245.117,758.408,30.04,75.40,-248.63
1766237887808,-32.49,-3.36,76.03,699.941,-865.723,794.053,29.48,58.96,-251.88
1766237887818,-33.59,-17.12,66.24,971.426,-852.051,456.162,22.91,31.40,-256.57
1766237887828,-32.31,-28.08,57.38,773.672,-685.547,548.936,7.98,10.09,-232.63
1766237887838,-30.74,-34.03,48.25,430.410,-656.738,564.072,-9.65,-3.60,-236.57
1766237887848,-28.07,-37.13,39.42,307.363,-482.422,559.189,-19.15,-12.35,-208.63
1766237887858,-17.32,-41.93,26.37,513.906,-34.668,763.779,-21.15,-27.79,-185.26
1766237887868,-3.82,-43.40,11.25,438.711,239.258,865.830,-23.65,-43.79,-166.57
1766237887878,9.44,-39.94,-3.79,135.488,445.801,854.600,-26.96,-55.29,-152.82
1766237887888,20.40,-35.87,-17.01,181.875,642.578,950.303,-22.27,-67.23,-142.69
1766237887898,28.49,-31.07,-28.20,172.109,780.273,1087.510,-15.09,-77.29,-137.38
1766237887908,33.63,-24.72,-37.46,-54.941,796.387,1155.381,-7.02,-84.85,-131.19
1766237887918,36.97,-19.29,-45.76,-51.523,862.305,1282.822,3.79,-91.29,-127.76
1766237887928,38.06,-12.89,-52.84,-336.191,812.012,1400.010,11.41,-88.54,-117.44
1766237887938,38.67,-7.30,-59.12,-440.195,877.930,1603.623,30.35,-80.66,-105.88
1766237887948,38.88,-0.76,-64.10,-825.938,868.164,1699.814,44.85,-61.29,-84.57
1766237887958,39.48,4.47,-67.74,-822.520,932.129,1825.791,63.91,-38.48,-63.01
1766237887968,41.15,9.46,-69.75,-895.273,911.621,1686.143,83.91,-13.73,-36.26
1766237887978,43.06,15.16,-70.34,-904.062,590.332,1017.197,80.23,-5.35,-1.13
1766237887988,43.47,15.62,-71.06,-328.867,391.602,692.979,66.98,-17.66,17.18
1766237887998,40.07,13.45,-72.84,-124.277,171.875,571.885,48.10,-28.73,20.24
1766237888008,35.16,8.81,-74.51,70.059,144.531,839.463,29.91,-21.85,12.49
1766237888018,31.97,2.51,-75.81,513.906,266.602,1218.369,27.35,-7.60,-9.38
1766237888028,30.08,-4.47,-77.67,968.984,268.066,1233.506,28.91,-0.54,-38.76
1766237888038,28.85,-11.31,-80.27,1054.434,189.453,1057.725,29.98,-6.60,-59.88
1766237888048,27.91,-17.82,-83.96,948.477,39.062,810.166,34.04,-17.04,-87.19
1766237888058,25.40,-22.36,-86.41,802.480,-99.609,851.670,33.16,-13.91,-82.51
1766237888068,22.74,-21.82,-88.69,537.832,-50.781,1055.283,28.54,2.34,-94.26
1766237888078,21.01,-17.15,-91.18,266.836,34.180,1218.857,32.54,25.96,-96.19
1766237888088,18.33,-11.14,-93.45,34.414,-74.219,1171.006,37.29,34.09,-88.76
1766237888098,11.13,-12.02,-95.00,354.238,-486.816,629.502,37.48,35.77,-81.13
1766237888108,3.50,-16.80,-97.09,794.180,-1011.719,394.150,33.66,27.15,-90.57
1766237888118,-4.55,-22.61,-99.58,1019.277,-1475.586,392.686,21.10,1.59,-108.76
1766237888128,-17.38,-22.39,-100.22,109.121,-1665.527,376.084,-40.90,0.02,-92.88
1766237888138,-18.43,-18.39,-104.36,40.273,-358.887,1440.537,-64.71,13.84,-70.32
1766237888148,-13.99,-16.15,-108.53,88.613,191.895,1591.904,-39.46,-0.98,-49.76
1766237888158,-11.88,-9.65,-110.52,-425.547,31.250,1572.861,-28.02,8.27,-19.07
1766237888168,-12.75,-0.28,-109.80,-770.273,-254.395,1304.307,-20.40,24.02,30.12
1766237888178,-15.11,10.52,-106.70,-848.887,-397.949,935.654,-22.15,37.96,91.24
1766237888188,-14.93,13.47,-101.03,-143.809,-288.086,995.225,-17.65,39.65,134.62
1766237888198,-13.29,11.68,-93.81,250.723,-231.445,1085.557,-11.09,37.84,164.37
1766237888208,-10.95,5.22,-86.19,851.797,-116.699,1155.381,0.16,21.02,172.68
1766237888218,-8.83,-0.01,-78.66,640.859,-95.703,1153.916,15.04,6.40,168.62
1766237888228,-6.58,1.56,-70.54,3.164,-23.926,1176.865,13.16,8.46,178.18
1766237888238,-2.69,6.87,-61.94,-400.645,172.363,1175.400,9.79,16.96,185.68
1766237888248,3.12,9.53,-52.44,-322.520,389.160,1274.521,15.35,19.27,192.81
1766237888258,8.38,10.97,-42.34,-306.406,334.473,1178.818,22.16,23.65,202.37
1766237888268,11.56,14.50,-32.09,-627.695,200.195,1200.791,15.79,34.59,207.43
1766237888278,14.16,16.16,-22.01,-570.078,179.199,1354.600,15.04,42.59,204.24
1766237888288,16.61,16.59,-12.34,-460.215,196.777,1337.021,18.10,48.59,194.87
1766237888298,17.08,21.87,-2.79,-965.098,-52.734,1233.994,7.79,72.96,194.31
1766237888308,17.92,25.58,6.50,-699.473,-20.020,1125.107,3.73,88.59,183.06
1766237888318,18.69,26.78,15.28,-419.688,38.086,1051.377,-4.46,97.96,168.81
1766237888328,19.26,26.68,23.29,-275.156,101.562,952.744,-13.40,98.40,147.68
1766237888338,18.50,28.51,30.40,-407.969,57.617,1003.525,-23.27,105.52,131.56
1766237888348,17.83,28.67,36.97,-277.598,125.488,1156.357,-29.96,111.21,114.18
1766237888358,16.43,28.86,42.58,-246.836,86.426,1243.271,-29.77,114.52,99.43
1766237888368,14.83,29.10,47.39,-202.891,75.684,1338.486,-28.71,120.15,83.62
1766237888378,12.58,29.12,51.09,-87.168,18.555,1292.588,-27.96,127.84,65.68
1766237888388,9.98,30.08,54.12,-97.422,-26.855,1161.240,-29.40,137.71,55.24
1766237888398,8.44,28.52,57.05,183.340,34.180,1155.869,-28.90,139.21,46.74
1766237888408,8.56,23.82,59.86,663.320,198.242,1306.748,-23.59,119.77,32.68
1766237888418,8.77,18.00,61.97,812.734,226.562,1298.447,-15.77,94.84,22.43
1766237888428,8.05,12.98,63.58,617.422,128.418,1180.283,-13.77,82.71,20.06
1766237888438,8.10,10.11,65.42,431.387,197.754,1221.299,-11.27,81.77,24.18
1766237888448,8.63,7.00,66.54,578.848,326.660,1393.662,-13.21,73.71,8.31
1766237888458,7.90,5.31,66.35,427.969,189.941,1404.893,-10.71,67.52,-14.26
1766237888474,7.95,2.08,64.53,645.254,215.332,1378.525,-0.27,55.96,-47.32
1766237888478,8.73,-1.56,60.36,738.516,226.562,1458.115,13.73,34.52,-94.19
1766237888488,8.23,-2.47,54.61,370.352,15.625,1248.154,19.10,28.34,-128.88
1766237888498,7.72,-3.90,46.42,415.762,-37.598,1155.869,21.29,21.09,-181.38
1766237888510,6.39,0.09,36.74,-52.988,-43.457,1106.064,8.29,24.84,-214.69
1766237888519,2.44,7.94,26.02,-319.590,-144.531,668.076,5.16,29.59,-229.63
1766237888528,3.66,11.05,14.09,-222.422,170.410,738.877,23.16,17.40,-255.76
1766237888538,4.07,8.23,0.75,47.598,114.746,1011.338,43.04,-12.29,-275.57
1766237888550,-2.21,9.65,-14.03,-331.797,-584.961,1138.779,47.48,-20.41,-278.26
1766237888559,-10.51,9.72,-29.59,-370.859,-1027.832,1048.936,54.10,-12.85,-279.57
1766237888569,-20.19,10.25,-45.49,-638.926,-1463.379,816.025,51.04,8.34,-277.26
1766237888578,-30.75,11.47,-60.89,-878.672,-1740.723,572.861,35.23,49.77,-254.69
1766237888589,-38.94,6.72,-74.65,-195.078,-1397.461,706.162,21.98,61.84,-243.51
1766237888598,-38.54,-7.14,-86.92,704.336,-767.578,795.029,25.10,43.84,-252.26
1766237888609,-32.91,-17.28,-98.83,561.270,-522.949,1008.408,12.66,21.34,-244.32
1766237888619,-32.05,-26.38,-109.74,567.617,-748.047,667.588,-4.90,4.09,-250.44
1766237888629,-30.91,-30.97,-119.77,313.223,-704.102,654.404,-15.21,-2.23,-241.51
1766237888639,-30.57,-31.72,-128.08,86.172,-652.832,584.092,-14.71,-8.04,-219.01
1766237888649,-26.22,-29.17,-137.65,-67.637,-371.582,721.299,-23.46,-11.16,-193.51
1766237888659,-16.31,-28.46,-149.83,89.102,58.105,884.385,-32.84,-21.10,-178.13
1766237888669,-5.43,-26.96,-162.45,88.125,449.707,1201.768,-36.02,-38.79,-170.19
1766237888679,5.44,-25.83,-175.10,197.012,630.371,1065.049,-27.21,-54.73,-169.76
1766237888689,15.08,-23.52,173.29,195.547,788.086,1120.713,-15.09,-63.91,-162.32
1766237888699,22.61,-19.34,163.06,32.461,898.438,1241.318,-4.27,-71.23,-156.38
1766237888709,27.34,-13.19,154.53,-288.828,868.164,1315.537,4.79,-74.48,-146.94
1766237888719,29.93,-7.37,147.23,-412.363,869.141,1495.713,15.91,-71.73,-136.07
1766237888729,32.01,-2.87,140.45,-363.535,930.664,1546.006,27.35,-67.91,-129.26
1766237888739,33.58,2.45,134.83,-600.840,927.246,1578.232,40.66,-52.60,-112.51
1766237888748,34.89,7.65,130.24,-750.254,952.148,1708.115,56.29,-34.98,-96.32
1766237888759,36.86,12.99,127.43,-851.328,891.113,1444.932,66.66,-13.48,-64.76
1766237888769,38.20,17.02,125.62,-689.219,622.559,1057.236,63.54,-11.41,-33.32
1766237888778,37.46,15.88,123.46,-206.797,382.812,775.986,47.29,-24.23,-16.76
1766237888788,34.09,8.55,121.24,196.523,184.570,655.869,28.79,-32.29,-12.07
1766237888798,31.24,1.37,119.18,428.457,247.559,929.795,21.41,-31.41,-26.63
1766237888808,30.04,-4.16,116.80,681.387,400.391,1254.014,27.60,-19.41,-49.57
1766237888818,29.75,-9.39,113.74,925.039,409.180,1233.506,28.98,-13.41,-72.76
1766237888829,30.29,-15.83,109.98,1079.824,299.805,1003.525,34.48,-27.23,-85.13
1766237888838,29.77,-21.18,106.30,940.664,87.402,998.643,41.41,-40.10,-91.13
1766237888849,27.40,-21.87,103.83,566.152,-80.078,1172.471,50.54,-29.16,-93.69
1766237888858,24.08,-15.77,102.66,-10.020,-132.324,1318.955,51.91,6.59,-89.01
1766237888869,20.33,-7.60,102.11,-200.938,-181.152,1104.600,52.73,43.40,-74.88
1766237888878,17.83,-5.11,100.86,155.996,-45.898,870.713,43.98,49.02,-60.13
1766237888888,11.34,-10.68,100.19,480.703,-384.277,334.580,33.66,39.46,-57.32
1766237888898,1.86,-13.93,100.31,520.742,-956.055,156.357,24.35,43.09,-63.82
1766237888909,-9.52,-16.25,100.62,642.324,-1657.715,226.670,-7.34,32.40,-69.44
1766237888919,-20.31,-18.15,100.31,665.762,-1453.125,793.564,-52.09,21.90,-70.32
1766237888929,-22.36,-16.83,97.40,239.492,-475.586,1345.322,-66.27,10.34,-57.32
1766237888939,-20.27,-10.54,95.12,-355.234,-15.137,1441.025,-56.34,12.84,-22.44
1766237888948,-17.76,-2.63,94.81,-582.773,125.000,1505.967,-49.09,30.21,13.93
1766237888958,-16.76,4.23,96.30,-393.320,-124.023,1185.166,-30.09,40.65,41.99
1766237888969,-16.87,9.61,99.40,-270.762,-244.141,972.275,-21.59,43.40,75.62
1766237888979,-17.29,10.01,103.73,73.477,-330.566,984.482,-15.96,40.27,104.43
1766237888989,-16.53,8.25,109.54,340.566,-315.918,1165.146,-12.59,38.27,132.37
1766237888998,-12.84,3.85,116.58,673.574,-37.598,1295.518,0.10,22.65,146.18
1766237889008,-8.45,-0.65,124.03,557.852,86.914,1118.760,14.04,9.77,152.74
1766237889018,-4.12,1.79,132.14,-51.523,127.930,1116.807,16.79,21.40,165.93
1766237889028,0.52,5.76,141.22,-403.086,221.680,1196.396,17.85,8.46,176.93
1766237889038,5.87,8.68,151.18,-433.848,332.520,1225.693,19.91,19.40,189.74
1766237889049,10.07,9.42,161.35,-331.797,305.176,1313.096,21.04,25.40,197.99
1766237889059,12.51,12.83,171.49,-647.715,173.828,1259.385,18.48,35.90,201.43
1766237889069,14.18,16.38,-178.09,-710.215,70.801,1318.955,16.23,55.71,209.74
1766237889079,15.87,18.69,-167.97,-629.160,85.449,1395.615,12.98,67.21,202.93
1766237889089,16.85,22.28,-157.97,-797.129,-42.969,1373.643,10.23,80.59,203.81
1766237889099,19.03,24.61,-148.17,-597.422,70.312,1207.627,12.91,92.21,191.24
1766237889109,22.29,25.96,-138.40,-490.977,230.469,1096.787,6.73,102.09,175.74
1766237889119,23.52,27.23,-129.97,-484.629,134.277,1133.896,1.48,106.27,159.56
1766237889129,21.82,28.41,-123.32,-414.805,-60.547,1147.080,-7.90,108.96,143.49
1766237889139,19.73,30.80,-117.36,-449.961,-105.469,1037.217,-12.65,114.02,131.06
1766237889149,17.54,32.76,-111.95,-421.641,-119.141,1139.268,-19.46,121.15,119.12
1766237889167,14.68,36.72,-107.24,-576.426,-219.238,1130.479,-27.90,133.59,110.99
1766237889176,12.15,39.96,-102.96,-468.516,-182.617,1130.479,-35.02,148.71,97.62
1766237889183,9.75,42.55,-99.08,-321.055,-138.184,991.807,-42.71,163.15,85.87
1766237889190,10.64,40.06,-93.80,161.367,121.094,1155.869,-43.77,161.15,69.49
1766237889200,10.68,35.22,-89.94,677.969,183.594,1378.525,-40.21,145.09,47.99
1766237889209,9.89,29.51,-87.33,924.551,186.523,1411.729,-36.96,126.77,32.06
1766237889219,8.78,22.93,-85.98,1118.887,180.176,1280.869,-30.40,108.27,12.56
1766237889236,7.30,17.19,-85.91,865.957,132.324,1193.955,-23.34,99.96,-9.07
1766237889257,5.23,15.22,-86.73,520.742,75.684,1326.279,-22.09,117.27,-26.57
1766237889264,4.65,12.32,-88.44,671.133,219.727,1490.342,-15.90,98.59,-46.38
1766237889268,5.68,7.51,-91.80,1010.977,380.371,1477.158,-2.96,77.34,-79.13
1766237889272,6.90,1.62,-97.42,991.445,263.672,1281.357,12.23,45.59,-117.01
1766237889279,7.23,-1.61,-104.12,534.902,91.309,1100.205,15.29,34.46,-139.38
1766237889289,6.76,-3.80,-112.57,395.742,14.648,955.674,9.48,25.46,-174.69
1766237889299,1.43,-0.79,-122.91,-38.340,-260.742,707.627,6.29,22.77,-212.38
1766237889309,5.34,2.77,-135.02,-73.008,202.148,717.393,15.48,26.02,-242.76
1766237889319,9.87,3.63,-148.01,61.758,321.777,845.322,32.98,4.09,-265.13
1766237889329,7.84,1.51,-162.41,211.660,-156.738,1200.791,48.48,-25.16,-286.88
1766237889339,1.24,3.52,-177.05,-362.070,-840.332,1195.420,51.10,-22.60,-290.13
1766237889349,-7.08,4.70,167.84,-475.840,-1205.078,908.799,49.10,-6.29,-298.88
1766237889359,-15.53,8.71,153.34,-1117.441,-1651.855,744.248,41.73,34.27,-283.63
1766237889369,-23.52,8.08,139.37,-438.730,-1350.098,850.205,33.41,58.15,-270.13
1766237889379,-27.11,-1.25,127.07,452.871,-966.797,864.365,35.73,48.52,-268.07
1766237889389,-27.07,-13.21,116.14,816.152,-796.875,754.990,37.29,26.59,-266.38
1766237889399,-25.78,-22.27,105.75,655.996,-773.438,731.553,26.91,13.02,-259.94
1766237889409,-23.26,-28.54,95.66,573.965,-646.973,730.576,13.73,10.15,-240.32
1766237889419,-23.75,-32.25,87.60,351.309,-664.551,496.201,1.16,1.52,-225.07
1766237889429,-23.65,-30.63,80.70,63.711,-515.137,591.904,-12.65,-5.85,-184.19
1766237889439,-16.31,-31.50,70.03,223.867,-85.449,830.186,-24.77,-21.41,-181.94
1766237889449,-4.76,-34.29,56.91,387.930,347.656,842.881,-27.65,-37.48,-176.94
1766237889459,7.90,-35.74,42.68,388.906,511.230,747.666,-24.02,-52.29,-170.69
1766237889469,17.95,-31.73,30.04,115.957,504.395,780.869,-20.84,-59.66,-162.57
1766237889479,24.71,-24.85,19.78,-138.438,619.141,940.049,-16.71,-67.16,-151.19
1766237889489,30.20,-21.91,10.16,196.523,739.746,1072.861,-3.65,-82.48,-147.82
1766237889499,32.71,-17.21,1.98,-44.688,692.383,1222.275,-1.65,-89.23,-137.57
1766237889509,32.97,-12.26,-5.13,-207.773,578.125,1299.912,4.98,-90.54,-125.38
1766237889519,33.71,-7.51,-11.91,-379.160,798.340,1525.986,14.66,-85.66,-115.26
1766237889529,34.99,-2.18,-17.55,-671.152,858.398,1647.080,42.79,-72.48,-95.13
1766237889539,36.10,2.57,-21.86,-788.828,1037.109,1795.518,44.29,-52.60,-72.13
1766237889549,38.58,6.55,-25.10,-749.277,1002.441,1611.436,73.66,-39.66,-52.88
1766237889561,41.28,9.45,-27.39,-676.523,845.703,1287.217,83.48,-40.10,-25.19
1766237889620,41.62,12.53,-29.11,-593.027,424.316,857.529,69.91,-42.66,4.24
1766237889673,39.39,8.31,-31.33,-27.109,294.434,784.775,52.35,-49.85,9.93
1766237889687,36.31,2.88,-33.06,183.828,281.738,985.947,39.04,-40.29,4.43
1766237889690,34.53,-3.93,-34.90,638.418,352.051,1160.264,38.54,-28.60,-20.76
1766237889693,32.84,-9.94,-37.14,804.922,236.328,1079.697,37.91,-17.79,-49.69
1766237889696,32.31,-16.65,-40.23,1044.180,199.219,913.682,34.23,-19.48,-71.19
1766237889699,31.71,-23.28,-43.66,1040.273,58.594,794.541,34.48,-29.54,-82.38
1766237889702,27.91,-27.05,-45.30,711.172,-171.875,780.381,30.23,-23.23,-85.01
1766237889705,25.21,-25.39,-46.92,597.891,-36.621,1233.506,31.41,-0.66,-91.51
1766237889708,23.97,-19.91,-48.85,297.598,84.961,1429.795,43.98,23.52,-93.13
1766237889711,20.89,-15.58,-50.63,204.336,-69.824,1066.025,36.35,24.96,-89.13
1766237889714,12.38,-15.55,-51.41,211.172,-388.672,437.607,25.91,25.27,-83.38
1766237889717,3.90,-20.88,-52.90,576.895,-825.684,191.514,21.54,10.34,-91.76
1766237889720,-6.09,-24.72,-53.88,604.238,-1462.891,245.713,10.35,-2.66,-102.69
1766237889723,-16.53,-22.19,-55.34,82.266,-1430.664,966.904,-46.02,6.34,-96.82
1766237889726,-18.50,-15.85,-59.06,-323.008,-464.355,1672.959,-69.46,12.34,-63.38
1766237889729,-15.49,-9.60,-62.09,-397.227,152.832,1645.127,-49.02,19.40,-28.32
1766237889739,-11.89,-3.61,-63.52,-342.539,163.574,1387.314,-21.90,28.27,-6.32
1766237889749,-13.00,4.28,-62.74,-497.812,-284.668,1098.740,-12.90,40.52,31.56
1766237889759,-16.85,9.75,-60.34,-307.383,-539.062,955.186,-18.27,46.46,74.74
1766237889770,-19.57,10.23,-56.39,97.891,-575.195,995.713,-15.65,43.40,109.93
1766237889779,-18.73,8.48,-50.70,419.668,-379.395,1218.369,-11.59,42.21,139.74
1766237889789,-15.72,4.15,-44.03,771.230,-158.203,1285.264,4.60,25.52,154.68
1766237889799,-12.53,0.09,-36.82,562.246,-75.684,1049.912,17.54,10.52,162.24
1766237889809,-8.91,-1.20,-28.95,303.945,23.926,1025.010,20.60,9.96,174.37
1766237889819,-4.97,4.82,-19.66,-347.910,121.094,1237.900,15.98,20.09,200.12
1766237889829,0.67,8.06,-9.61,-261.484,308.594,1295.518,15.91,21.52,202.43
1766237889838,6.50,7.36,0.72,-9.531,325.195,1139.756,25.48,22.15,203.24
1766237889849,9.13,10.81,10.98,-492.441,146.484,1236.924,19.85,33.34,204.12
1766237889859,11.85,13.50,21.13,-521.738,167.969,1327.744,19.66,43.40,198.37
1766237889869,14.81,16.50,31.13,-680.918,236.816,1429.307,17.41,53.02,189.68
1766237889879,17.82,20.09,41.22,-752.207,248.535,1321.885,12.66,70.52,183.68
1766237889889,19.87,23.83,50.54,-691.172,111.328,1079.209,14.10,79.90,171.62
1766237889899,21.96,24.54,59.16,-444.590,219.238,1096.787,4.35,83.71,153.68
1766237889909,23.38,24.24,66.72,-363.535,273.438,1107.529,-2.02,81.40,133.12
1766237889919,22.87,25.26,73.11,-448.496,166.016,1135.850,-6.27,85.65,119.12
1766237889929,20.85,25.62,78.10,-334.727,68.848,1103.135,-9.34,85.02,101.24
1766237889939,17.47,25.76,82.13,-248.789,-36.133,1140.732,-15.52,90.40,88.87
1766237889949,12.62,27.85,85.41,-340.098,-197.754,1137.314,-25.46,101.02,82.06
1766237889959,6.88,30.71,87.70,-327.891,-298.828,1050.400,-34.84,112.21,72.49
1766237889969,1.90,33.01,89.46,-240.977,-255.859,1011.338,-42.65,124.90,61.81
1766237889979,-0.25,32.00,91.43,33.438,-78.125,1043.564,-42.40,126.71,44.24
1766237889989,0.11,29.38,94.05,253.652,144.531,1277.451,-44.84,120.90,30.81
1766237889999,1.39,25.30,96.52,530.020,295.410,1367.783,-41.09,110.71,19.74
1766237890009,3.32,18.99,98.20,1001.699,502.930,1307.725,-37.09,88.65,-1.51
1766237890019,4.69,12.56,98.29,948.965,437.500,1224.717,-27.21,73.02,-23.76
1766237890029,5.43,8.28,97.02,650.625,359.863,1221.787,-24.90,70.59,-43.44
1766237890039,6.23,5.73,94.57,573.965,405.762,1395.615,-20.90,68.02,-64.57
1766237890049,7.09,3.57,90.81,618.398,409.180,1567.490,-9.71,60.09,-89.94
1766237890059,8.90,0.57,85.66,746.816,459.473,1555.771,5.54,43.46,-118.26
1766237890069,11.73,-4.52,78.52,1006.094,451.660,1322.373,21.04,19.02,-158.57
1766237890079,13.36,-7.68,69.59,686.758,187.988,1142.686,24.35,5.27,-197.63
1766237890089,13.49,-10.04,59.18,487.539,-0.977,840.439,18.41,-5.29,-235.01
1766237890099,12.27,-3.20,48.52,-130.137,-43.457,721.299,17.48,-3.79,-249.63
1766237890109,10.54,6.53,37.83,-536.387,-42.969,776.963,25.16,-6.29,-239.51
1766237890119,7.33,10.62,26.36,-398.203,-175.293,1031.357,50.04,-20.91,-230.32
1766237890129,0.74,13.32,14.18,-566.172,-812.988,1442.979,56.54,-15.16,-221.94
1766237890139,-7.97,14.27,0.68,-474.375,-1368.652,1382.920,58.85,1.90,-230.19
1766237890149,-18.57,13.07,-14.39,-249.766,-1734.375,821.885,64.91,18.02,-246.63
1766237890159,-29.04,9.56,-29.40,-128.672,-1826.660,574.326,55.66,34.71,-252.57
1766237890169,-36.13,0.86,-42.93,289.785,-1509.277,647.080,41.35,34.15,-262.51
1766237890179,-40.55,-10.03,-54.58,486.562,-1327.148,509.873,31.48,24.84,-263.69
1766237890189,-40.41,-21.21,-65.18,568.594,-1014.648,571.885,26.35,15.02,-261.01
1766237890199,-36.52,-30.10,-76.07,566.152,-747.559,725.205,3.60,5.21,-246.63
1766237890209,-33.67,-32.70,-85.90,212.148,-612.305,628.525,-15.65,4.27,-224.82
1766237890219,-27.34,-35.40,-96.83,307.852,-310.059,669.541,-27.09,-4.35,-191.13
1766237890229,-15.06,-40.34,-111.51,540.762,96.680,720.811,-34.59,-25.04,-173.63
1766237890239,0.14,-40.87,-128.31,414.785,403.320,778.428,-38.34,-39.41,-157.57
1766237890249,12.58,-36.62,-142.93,177.480,557.129,881.455,-39.02,-54.79,-144.82
1766237890260,21.93,-31.81,-155.12,176.992,747.070,1016.709,-33.46,-68.48,-137.51
1766237890269,28.42,-26.30,-165.27,56.875,928.711,1235.459,-25.84,-81.10,-131.69
1766237890280,32.50,-20.20,-173.79,-168.711,966.309,1378.525,-12.02,-90.10,-125.07
1766237890290,35.00,-14.36,178.92,-296.641,1021.484,1498.643,-0.59,-87.98,-116.19
1766237890299,35.91,-7.65,173.02,-657.480,964.355,1606.064,12.29,-76.98,-100.63
1766237890309,37.00,-2.52,167.91,-614.512,1100.586,1762.803,30.54,-65.41,-88.88
1766237890319,38.28,3.27,164.26,-902.598,1074.219,1735.459,49.41,-44.79,-66.13
1766237890329,40.56,8.14,162.09,-927.012,1240.234,1753.037,65.73,-21.04,-44.13
1766237890339,43.61,10.20,161.36,-600.352,1097.656,1459.580,82.85,-11.73,-9.13
1766237890349,46.30,13.15,160.77,-534.922,669.922,828.232,78.23,-16.23,0.56
1766237890359,46.55,9.16,159.27,-7.578,351.074,506.455,62.04,-33.48,7.56
1766237890369,41.16,2.56,157.76,152.578,84.473,526.475,42.48,-35.16,13.81
1766237890379,34.84,-2.77,157.45,263.418,27.344,876.572,27.85,-26.66,12.49
1766237890389,31.41,-11.09,157.02,942.129,89.844,1036.729,23.48,-20.66,-12.26
1766237890399,30.15,-17.69,154.95,1262.441,232.422,1212.021,25.29,-21.54,-54.44
1766237890409,29.83,-23.26,151.54,1248.770,85.449,1117.783,39.48,-30.23,-88.07
1766237890420,26.08,-24.39,149.45,617.910,-242.188,1063.584,43.41,-24.23,-103.01
1766237890429,20.95,-21.41,148.11,281.484,-322.266,1064.072,37.41,0.71,-105.76
1766237890439,18.91,-15.60,145.79,147.695,-23.438,1340.439,30.91,28.84,-97.57
1766237890449,18.29,-10.59,143.24,157.461,80.566,1164.658,38.48,44.65,-89.94
1766237890459,16.97,-5.80,141.23,67.129,45.898,1035.264,34.91,50.84,-74.44
1766237890469,12.22,-4.87,139.95,196.523,-204.102,707.139,33.29,51.84,-58.38
1766237890479,6.28,-12.32,138.64,999.746,-789.062,237.412,33.79,31.09,-62.57
1766237890489,-3.75,-17.67,138.92,895.742,-1651.367,-149.795,7.54,10.59,-60.82
1766237890500,-16.13,-22.43,140.25,832.754,-1533.691,233.994,-42.52,1.02,-62.13
1766237890509,-18.42,-24.58,137.32,630.605,-395.508,1209.580,-67.09,-7.60,-66.01
1766237890520,-14.96,-20.64,133.40,-78.867,138.672,1404.404,-54.59,-19.91,-44.44
1766237890530,-11.50,-15.18,130.95,-287.363,226.562,1522.080,-37.65,-10.23,-22.32
1766237890539,-10.21,-6.21,131.53,-808.848,48.340,1556.748,-22.09,9.15,20.43
1766237890549,-8.77,3.83,134.89,-976.328,19.531,1348.740,-9.27,26.09,69.93
1766237890559,-7.05,11.99,140.52,-678.477,-63.477,1170.518,-3.02,42.40,113.74
1766237890569,-4.24,11.17,148.72,115.469,-48.828,1189.072,2.35,46.52,166.62
1766237890579,-1.69,4.35,156.52,754.141,-12.695,1222.764,16.16,28.02,159.43
1766237890589,-1.54,-0.36,164.18,443.594,-177.734,1131.943,27.85,8.40,159.56
1766237890599,-3.77,-1.02,172.00,137.441,-328.125,1013.779,28.41,7.09,161.24
1766237890610,-3.16,-0.73,-179.81,70.547,-119.141,1139.756,24.91,8.02,171.31
1766237890619,-1.46,2.87,-171.06,-273.691,5.371,1178.818,17.04,8.52,182.43
1766237890629,1.48,7.71,-161.96,-516.855,105.957,1162.217,17.04,12.65,187.37
1766237890639,5.14,10.39,-152.50,-441.660,157.715,1216.416,21.66,17.90,192.56
1766237890649,8.84,11.58,-143.15,-422.129,235.840,1334.580,20.73,21.21,189.93
1766237890660,12.06,14.02,-134.37,-610.605,254.883,1303.818,18.91,28.15,177.99
1766237890670,14.40,17.40,-125.85,-735.117,196.777,1312.607,14.10,46.09,172.56
1766237890680,15.95,21.11,-117.50,-746.348,173.828,1232.041,-3.15,62.84,165.99
1766237890691,18.10,23.16,-109.56,-543.223,184.570,1162.217,7.73,74.27,152.56
1766237890700,19.86,23.86,-102.33,-431.406,254.883,1207.627,-0.59,79.77,133.68
1766237890710,20.05,24.12,-96.24,-345.957,189.941,1200.303,-7.02,84.15,115.49
1766237890720,19.23,24.21,-91.15,-284.434,138.672,1216.904,-9.34,87.09,98.93
1766237890730,17.15,24.81,-87.09,-293.223,29.785,1239.854,-11.15,88.59,86.18
1766237890740,14.20,25.88,-83.74,-279.551,-54.688,1217.881,-17.52,94.71,76.74
1766237890750,10.57,26.64,-81.12,-202.402,-118.652,1137.314,-23.96,97.84,67.81
1766237890760,7.25,28.69,-78.65,-256.113,-141.113,1072.373,-25.96,109.90,64.68
1766237890770,6.66,27.62,-75.51,23.672,46.875,1071.396,-25.52,113.71,54.56
1766237890780,7.24,23.63,-72.62,379.629,173.340,1187.119,-20.34,105.09,41.06
1766237890790,8.92,18.48,-69.98,612.539,351.562,1274.033,-14.71,89.90,31.12
1766237890800,10.78,11.90,-68.53,912.832,459.961,1248.643,-8.09,69.84,11.43
1766237890810,11.81,5.56,-68.78,843.496,371.582,1139.268,-3.65,53.77,-16.38
1766237890820,10.17,3.16,-70.36,384.023,110.352,1025.498,-7.46,55.52,-42.57
1766237890830,7.33,3.32,-73.33,249.258,18.555,1087.510,-14.21,64.09,-70.38
1766237890840,6.61,1.71,-78.47,530.996,187.988,1322.861,-12.96,61.84,-113.32
1766237890850,6.07,2.11,-85.63,360.586,221.191,1516.221,-13.09,58.15,-152.01
1766237890860,6.16,1.09,-95.10,478.262,217.285,1421.006,-4.34,48.40,-195.63
1766237890870,7.87,-2.74,-107.68,718.496,214.844,1155.869,11.98,27.84,-250.51
1766237890880,9.55,-4.03,-122.34,434.316,152.344,983.994,11.23,19.46,-292.76
1766237890890,11.20,-1.69,-137.82,136.465,115.234,785.752,21.73,15.52,-313.82
1766237890900,11.17,-0.83,-153.48,133.535,8.301,852.646,39.79,-11.66,-318.57
1766237890910,5.53,1.89,-168.58,-283.945,-595.703,1058.213,55.29,-36.10,-302.26
1766237890920,-2.21,6.40,177.80,-924.570,-1308.594,1103.135,49.35,-14.23,-265.76
1766237890930,-10.16,10.66,165.21,-1093.516,-1711.914,1273.057,49.98,30.40,-233.51
1766237890940,-18.68,10.50,152.53,-363.047,-1676.270,1110.947,46.66,60.46,-224.63
1766237890950,-26.31,5.89,140.70,197.500,-1572.754,845.322,41.16,70.65,-218.13
1766237890960,-31.46,-4.83,130.41,854.238,-1290.039,460.557,37.29,54.59,-225.26
1766237890970,-35.30,-14.95,121.73,730.703,-1229.980,405.869,22.48,36.71,-228.01
1766237890980,-36.42,-24.30,113.54,602.285,-901.855,536.240,-1.52,16.52,-233.01
1766237890990,-36.50,-31.61,105.85,509.023,-759.766,533.799,-19.02,4.02,-220.94
1766237891000,-34.06,-35.64,97.67,333.242,-462.891,566.025,-37.90,-5.79,-192.19
1766237891010,-25.93,-42.86,86.40,598.867,-90.332,632.920,-45.71,-23.16,-178.82
1766237891020,-11.78,-45.61,70.56,422.109,286.133,781.846,-52.15,-40.54,-163.57
1766237891030,2.81,-42.34,54.31,68.105,505.859,798.447,-50.71,-48.35,-149.01
1766237891040,14.27,-36.39,40.85,-101.816,723.633,906.357,-45.46,-54.41,-134.88
1766237891050,22.95,-30.91,29.67,-1.719,934.082,1099.717,-36.59,-64.85,-128.51
1766237891060,27.67,-22.96,21.32,-360.605,854.004,1170.029,-28.34,-66.29,-119.94
1766237891070,30.07,-15.60,14.54,-433.848,949.707,1402.939,-21.77,-61.48,-111.63
1766237891080,31.51,-8.83,8.77,-529.551,995.117,1535.752,-6.90,-53.91,-103.69
1766237891090,32.10,-1.83,4.31,-775.156,1009.277,1710.557,7.91,-35.23,-88.57
1766237891150,33.15,4.03,0.94,-780.039,1045.898,1802.354,32.04,-17.35,-73.19
1766237891165,35.08,8.85,-0.88,-797.617,1081.055,1871.689,57.60,3.40,-47.44
1766237891168,38.58,12.32,-1.23,-685.312,1033.203,1580.186,81.73,14.65,-19.63
1766237891171,41.79,11.92,-1.10,-260.020,700.684,988.877,80.16,-2.04,9.18
1766237891174,43.78,2.64,-1.62,285.879,330.566,448.350,64.16,-26.73,20.06
1766237891177,42.18,-8.97,-2.12,500.723,145.020,458.115,45.23,-40.10,25.93
1766237891180,40.33,-17.51,-2.51,866.445,303.711,942.979,39.10,-41.73,7.37
1766237891183,38.27,-22.06,-2.85,906.973,308.105,1304.307,47.41,-34.60,-19.88
1766237891186,37.62,-26.54,-4.48,1047.598,260.254,1177.354,51.48,-40.73,-48.32
1766237891190,35.55,-28.93,-5.79,719.473,35.156,1055.283,55.35,-46.98,-65.69
1766237891200,29.65,-24.56,-4.93,69.082,-250.000,1116.318,50.66,-25.04,-70.69
1766237891210,24.42,-18.18,-5.09,-40.293,-251.465,1232.529,41.91,5.15,-80.63
1766237891220,20.62,-10.05,-6.34,-150.156,-106.445,1236.924,32.73,39.90,-82.32
1766237891229,18.48,-3.25,-8.20,-79.844,46.875,1185.654,30.79,59.21,-75.13
1766237891239,16.16,-4.66,-9.85,526.113,-94.238,920.518,41.48,69.09,-65.19
1766237891250,11.55,-8.01,-11.64,645.742,-405.762,750.596,43.60,56.46,-69.44
1766237891260,2.42,-11.33,-13.49,759.512,-1245.117,299.424,23.10,44.77,-83.13
1766237891270,-9.08,-14.98,-15.29,749.258,-1752.930,-183.975,-14.46,26.77,-87.88
1766237891280,-21.95,-15.69,-17.34,294.180,-1101.074,433.701,-64.65,28.21,-90.38
1766237891290,-17.84,-13.93,-23.07,105.215,167.969,1420.518,-64.27,23.84,-78.38
1766237891300,-12.58,-9.39,-27.74,-261.973,347.168,1351.670,-41.84,15.96,-62.38
1766237891310,-10.85,-1.84,-30.00,-624.766,60.547,1501.572,-28.96,29.96,-30.44
1766237891320,-10.25,3.60,-29.93,-439.707,-124.512,1520.127,-14.21,32.90,9.49
1766237891330,-14.63,11.56,-27.76,-675.059,-630.859,1023.057,-15.96,41.77,68.24
1766237891340,-17.00,17.18,-23.20,-395.762,-567.871,1126.084,-23.34,60.15,125.62
1766237891350,-15.69,15.77,-16.13,352.285,-315.918,1143.174,-21.15,68.84,167.37
1766237891360,-11.34,10.13,-8.07,996.816,41.504,1178.818,-3.90,49.77,173.06
1766237891369,-8.96,5.55,-0.36,510.977,-104.004,983.506,6.85,29.84,165.99
1766237891379,-7.30,5.33,7.38,128.164,-101.562,952.744,6.35,29.34,164.56
1766237891389,-3.90,5.99,15.84,82.266,54.688,1197.373,8.35,33.65,174.24
1766237891399,-0.33,8.93,25.10,-195.078,113.281,1224.717,7.48,36.09,183.56
1766237891409,3.42,13.12,34.93,-397.715,135.254,1109.482,6.60,40.52,187.31
1766237891419,7.43,15.38,45.43,-374.277,173.828,1253.037,9.41,47.27,195.68
1766237891430,11.57,15.75,56.03,-327.891,271.973,1381.455,9.73,48.34,194.81
1766237891440,15.29,15.54,66.00,-350.840,347.656,1434.189,11.48,48.84,183.43
1766237891450,17.79,17.45,75.71,-588.633,286.621,1379.990,9.29,61.09,179.24
1766237891460,18.89,20.37,84.95,-647.227,145.020,1258.408,6.04,74.52,172.62
1766237891470,20.82,21.93,93.78,-499.766,245.117,1210.068,4.54,82.71,156.99
1766237891480,20.80,23.36,100.45,-399.668,154.297,1158.799,0.66,90.27,121.12
1766237891490,18.94,24.75,106.52,-377.695,16.602,1169.053,-8.90,94.34,119.62
1766237891500,15.07,25.38,110.96,-230.234,-130.859,1153.916,-16.52,98.02,99.99
1766237891510,9.65,27.44,114.02,-263.438,-270.508,1065.049,-26.02,104.84,83.49
1766237891520,4.18,29.89,116.02,-281.992,-317.871,1081.650,-33.65,110.02,68.49
1766237891530,-0.18,34.42,117.80,-431.895,-282.715,1007.432,-38.77,124.21,62.68
1766237891540,-0.32,35.52,120.71,-163.828,-0.977,1015.732,-37.46,132.90,49.18
1766237891550,2.02,33.18,124.41,185.293,226.562,1218.857,-33.96,129.15,36.12
1766237891560,4.89,28.54,127.81,592.031,420.898,1392.686,-28.15,114.27,23.43
1766237891570,7.27,22.60,130.27,823.965,483.887,1435.166,-20.27,92.65,12.31
1766237891579,9.11,16.46,131.72,826.406,465.820,1347.764,-14.15,76.90,0.49
1766237891590,9.20,11.94,132.06,555.898,262.207,1185.654,-12.96,74.59,-10.19
1766237891599,8.42,8.62,130.97,530.020,187.500,1251.084,-9.40,73.02,-35.13
1766237891610,7.88,5.73,128.20,596.426,205.566,1333.115,-5.34,69.02,-69.82
1766237891620,7.90,3.84,123.61,546.621,246.094,1368.760,-0.84,63.96,-107.82
1766237891630,5.52,4.84,117.18,171.621,-42.969,1194.932,2.85,59.34,-143.32
1766237891640,5.81,2.81,108.82,430.410,190.918,1088.975,0.48,52.46,-187.26
1766237891650,7.82,-0.56,98.52,475.820,257.324,798.936,3.60,39.34,-232.07
1766237891660,10.07,-2.69,86.42,357.656,182.129,653.916,13.54,31.52,-272.01
1766237891670,12.02,-3.58,73.00,314.199,144.043,733.506,24.10,12.90,-302.13
1766237891680,8.94,2.23,59.69,-180.430,-200.195,899.521,29.91,-3.23,-305.69
1766237891690,1.55,10.39,45.99,-747.812,-809.082,892.686,36.60,-0.04,-290.76
1766237891700,-7.16,17.31,31.53,-1046.152,-1145.996,1111.436,40.79,29.71,-268.19
1766237891710,-17.62,20.70,16.19,-738.047,-1427.246,1188.584,39.41,70.90,-245.94
1766237891720,-28.82,19.52,0.54,-220.957,-1611.328,1068.955,29.23,101.59,-229.26
1766237891730,-38.84,12.69,-14.29,354.238,-1513.184,689.072,22.98,104.21,-226.44
1766237891740,-46.34,1.91,-27.23,668.203,-1326.660,410.752,12.35,93.77,-228.01
1766237891750,-48.80,-13.06,-37.63,883.047,-902.832,391.709,-0.40,54.27,-233.63
1766237891760,-47.17,-29.36,-47.31,1058.828,-537.598,350.205,-17.90,26.02,-222.63
1766237891770,-43.54,-42.51,-57.81,1002.188,-518.555,412.705,-39.59,9.15,-220.13
1766237891780,-37.18,-49.25,-69.49,467.520,-305.176,398.057,-54.09,-9.54,-199.57
1766237891790,-18.92,-54.07,-90.20,510.977,73.730,607.529,-51.77,-31.91,-180.26
1766237891800,3.08,-54.75,-114.23,562.246,394.043,767.686,-44.77,-58.23,-162.44
1766237891810,20.77,-49.38,-134.29,308.828,626.465,950.791,-38.21,-80.73,-147.51
1766237891820,31.85,-42.01,-148.64,183.828,881.836,1188.584,-31.40,-96.29,-135.07
1766237891831,37.88,-34.03,-158.88,-46.641,971.191,1326.279,-20.96,-105.98,-120.63
1766237891840,41.22,-26.97,-167.42,-99.863,1004.883,1392.197,-12.40,-111.91,-115.38
1766237891851,41.87,-19.52,-174.21,-405.527,932.617,1425.889,-9.84,-104.91,-100.63
1766237891860,41.77,-12.89,179.96,-509.043,999.023,1565.537,2.79,-92.60,-91.01
1766237891870,41.32,-7.20,175.17,-531.992,941.406,1616.807,22.23,-75.29,-78.51
1766237891880,41.14,-2.99,171.31,-465.098,913.086,1707.627,46.16,-59.41,-64.26
1766237891890,42.23,-1.15,167.75,-198.496,992.676,1819.932,76.35,-51.98,-58.13
1766237891900,43.89,1.67,164.98,-406.504,881.836,1781.357,104.79,-40.41,-45.13
1766237891910,45.68,2.31,162.90,-154.551,625.488,1337.021,122.23,-34.48,-24.63
1766237891920,44.83,4.00,161.25,-303.965,278.809,925.400,103.29,-43.60,2.99
1766237891930,40.66,3.96,159.71,-173.105,64.453,603.135,70.79,-54.23,24.12
1766237891940,36.92,-6.04,159.11,286.367,51.270,487.412,49.85,-60.04,32.31
1766237891950,32.18,-13.05,159.81,387.441,52.734,805.771,31.98,-51.79,28.68
1766237891960,29.62,-20.99,159.88,911.855,152.832,977.158,20.41,-43.16,1.49
1766237891970,28.83,-28.80,157.91,1210.195,152.832,861.924,13.41,-47.91,-40.51
1766237891980,26.55,-33.48,155.56,796.133,-45.410,788.682,11.29,-54.73,-74.57
1766237891990,21.54,-29.88,154.28,217.031,-194.824,977.158,10.73,-35.16,-100.82
1766237892000,17.06,-19.07,152.75,-492.930,-198.730,1346.299,-0.34,10.84,-96.32
1766237892010,14.10,-8.90,150.46,-479.258,-65.918,1567.490,4.41,42.09,-88.82
1766237892020,5.39,-5.01,148.00,8.535,-620.605,700.303,21.48,47.52,-95.94
1766237892030,-6.52,-4.16,144.25,138.906,-1443.359,272.080,-5.27,46.27,-109.88
1766237892040,-18.64,-5.43,139.58,345.449,-1641.113,434.678,-36.34,51.21,-121.32
1766237892050,-27.59,-7.05,134.66,264.883,-1027.344,861.924,-76.21,48.09,-115.13
1766237892060,-25.28,-8.49,128.08,241.934,-2.441,1324.326,-85.71,43.21,-117.32
1766237892070,-19.25,-7.58,122.01,50.527,388.672,1332.627,-57.59,34.21,-99.44
1766237892080,-15.38,-0.16,118.67,-605.234,292.969,1456.162,-43.65,46.90,-52.01
1766237892090,-10.55,2.95,118.16,-120.371,365.234,1428.818,-26.59,44.84,-3.94
1766237892100,-6.69,0.71,120.28,236.562,150.391,840.928,-9.71,27.90,45.12
1766237892110,-6.20,-5.21,124.83,526.113,-45.898,793.076,0.79,11.52,92.74
1766237892120,-7.87,-10.79,131.93,691.641,-210.938,944.932,9.66,-4.10,137.37
1766237892130,-8.54,-17.52,140.23,1027.578,-151.855,1122.178,26.60,-29.04,157.49
1766237892141,-9.34,-23.92,148.99,922.598,-135.254,1051.865,42.54,-55.98,158.49
1766237892150,-9.85,-26.06,158.21,499.258,-67.871,1075.791,46.98,-68.04,171.12
1766237892160,-10.16,-19.23,167.92,-346.445,-73.730,1264.268,43.41,-60.48,188.31
1766237892170,-8.01,-13.22,177.30,-407.480,54.688,1266.709,46.29,-55.60,193.87
1766237892180,-4.84,-8.96,-173.26,-318.125,89.355,1211.045,51.66,-46.91,198.06
1766237892190,-3.57,-2.40,-163.31,-649.668,-70.801,1233.018,41.10,-30.23,206.24
1766237892200,-1.29,2.97,-153.71,-640.879,-19.531,1329.209,36.66,-14.60,201.62
1766237892210,1.97,5.97,-144.64,-459.727,66.895,1294.541,37.10,-5.41,190.12
1766237892220,3.62,11.70,-136.03,-784.922,-60.059,1219.834,24.85,13.59,183.37
1766237892230,6.17,15.74,-127.89,-666.270,50.781,1230.576,18.35,26.34,168.18
1766237892240,8.68,17.79,-120.42,-443.613,93.262,1097.764,12.91,36.09,150.81
1766237892250,11.13,17.39,-113.82,-244.395,181.641,1009.385,3.60,35.15,128.49
1766237892260,12.28,17.56,-108.23,-288.828,183.105,1038.193,-6.59,36.21,109.93
1766237892270,12.66,18.12,-103.42,-334.238,182.129,1087.021,-12.15,36.34,94.99
1766237892280,12.08,19.59,-99.25,-414.316,151.367,1119.736,-21.65,40.46,83.62
1766237892290,10.37,23.61,-95.70,-626.230,49.805,1063.584,-30.59,50.77,76.37
1766237892300,9.47,27.36,-92.22,-592.539,108.398,1054.795,-35.09,65.84,64.62
1766237892311,9.87,31.30,-88.38,-635.996,196.289,1105.088,-33.90,83.96,57.74
1766237892320,12.63,29.75,-84.08,-134.531,474.609,1259.385,-28.34,87.02,40.06
1766237892331,13.24,26.03,-81.67,190.664,398.438,1419.053,-22.52,84.84,21.37
1766237892340,12.52,21.66,-80.88,414.785,313.965,1418.564,-18.77,82.84,-1.51
1766237892351,9.70,17.97,-82.24,425.039,103.027,1246.689,-18.21,84.21,-33.44
1766237892364,4.93,16.22,-85.64,287.832,-51.270,1092.393,-25.96,93.46,-66.63
1766237892371,1.30,13.60,-90.67,485.586,46.875,1177.354,-36.15,100.27,-105.32
1766237892381,0.03,10.48,-97.13,702.383,291.016,1393.174,-39.34,97.46,-139.76
1766237892393,0.44,5.93,-105.93,971.914,440.430,1428.818,-30.09,80.15,-184.19
1766237892400,1.95,1.15,-117.72,885.977,428.223,1326.768,-22.34,53.52,-237.69
1766237892410,3.82,-1.82,-131.90,576.895,313.965,1112.412,-21.52,41.27,-281.82
1766237892420,6.82,-3.68,-147.76,504.629,346.191,1046.494,-16.27,27.21,-314.57
1766237892430,10.12,-3.84,-163.42,394.766,373.535,1233.506,1.35,3.09,-315.38
1766237892440,10.69,-3.04,-178.29,139.395,94.727,1277.939,19.66,-29.23,-306.69
1766237892450,4.69,0.03,168.36,-277.109,-606.445,976.670,37.79,-29.85,-282.32
1766237892461,-2.34,3.60,156.15,-555.430,-1083.496,1066.025,44.54,-4.04,-253.69
1766237892471,-9.81,5.06,144.68,-419.688,-1427.734,1017.686,53.98,18.84,-230.51
1766237892481,-15.70,-0.24,133.90,370.352,-1343.750,951.768,55.85,22.52,-224.51
1766237892490,-17.84,-9.76,124.09,864.004,-1070.312,850.693,59.60,8.90,-228.38
1766237892501,-17.98,-19.35,114.78,851.309,-971.680,768.174,59.66,-12.54,-238.19
1766237892511,-18.24,-25.52,106.13,457.754,-860.352,639.268,48.10,-23.23,-240.88
1766237892521,-18.65,-30.68,98.25,404.531,-876.953,609.482,37.60,-35.41,-237.69
1766237892531,-19.57,-32.85,91.83,209.707,-824.707,618.760,27.48,-40.48,-214.57
1766237892541,-17.65,-31.37,84.66,10.488,-482.910,717.881,11.91,-42.85,-189.76
1766237892550,-11.59,-29.56,75.68,-4.160,-149.414,812.607,5.48,-53.85,-176.51
1766237892560,-3.19,-30.71,65.58,242.422,117.188,950.791,4.10,-64.91,-165.38
1766237892570,6.24,-30.74,54.87,228.262,308.594,890.732,5.79,-69.54,-155.32
1766237892580,14.56,-27.42,44.91,45.645,450.195,988.389,7.29,-70.79,-144.82
1766237892590,22.16,-23.92,35.30,51.016,642.578,1089.951,12.48,-75.85,-142.88
1766237892601,27.95,-18.64,26.81,-142.832,714.844,1087.021,13.48,-76.73,-134.69
1766237892611,31.98,-13.28,19.17,-218.027,800.293,1225.205,19.66,-76.85,-130.26
1766237892621,33.73,-6.67,13.10,-519.785,797.363,1407.822,25.35,-65.10,-112.88
1766237892630,35.56,-1.68,7.84,-504.160,923.340,1546.982,43.23,-57.23,-96.63
1766237892640,37.26,3.17,3.77,-699.473,917.480,1634.385,63.10,-46.85,-72.76
1766237892650,39.98,5.51,0.94,-530.039,1017.090,1575.303,80.04,-40.91,-41.76
1766237892660,43.85,5.31,-1.30,-315.195,949.707,1212.021,92.85,-52.85,-13.82
1766237892670,47.50,0.68,-4.29,17.812,758.301,886.338,93.66,-90.10,7.81
1766237892680,49.14,-5.86,-7.12,144.277,406.738,566.514,83.54,-95.98,23.06
1766237892690,47.23,-15.04,-9.65,353.750,239.258,633.896,59.48,-107.73,26.37
1766237892701,45.49,-23.88,-11.94,728.262,293.457,1009.385,53.91,-112.98,13.06
1766237892711,43.80,-29.15,-13.58,753.652,317.383,1304.795,58.54,-105.73,-5.38
1766237892721,42.41,-30.84,-15.18,640.371,373.535,1559.678,60.29,-99.04,-27.13
1766237892731,41.09,-30.30,-16.69,493.887,278.809,1628.525,71.10,-88.23,-48.76
1766237892740,39.00,-27.57,-18.02,296.621,67.871,1583.604,79.10,-69.79,-76.01
1766237892751,35.05,-19.60,-18.44,-405.039,-216.797,1399.033,75.73,-33.98,-83.51
1766237892760,31.47,-9.97,-19.47,-481.211,-87.891,1279.404,62.54,6.34,-81.69
1766237892770,29.10,-2.34,-21.21,-232.676,129.395,1192.490,53.66,34.09,-79.38
1766237892780,27.30,1.73,-23.16,4.629,156.250,1219.346,58.41,45.59,-73.88
1766237892790,20.33,-0.45,-25.81,315.176,-365.234,571.885,56.79,36.34,-75.19
1766237892800,11.65,-3.55,-29.05,576.895,-953.613,324.326,40.98,35.52,-88.19
1766237892810,1.78,-6.48,-32.78,815.176,-1783.203,-162.002,14.35,31.21,-99.19
1766237892821,-10.47,-12.09,-36.82,1117.422,-2032.715,-429.580,-41.09,10.27,-109.82
1766237892831,-19.60,-20.42,-40.97,1081.289,-876.465,714.951,-85.90,-4.60,-114.38
1766237892841,-21.14,-22.85,-45.58,458.730,-355.957,1236.436,-79.34,-23.41,-95.44
1766237892851,-17.48,-21.75,-50.99,209.219,48.828,1819.443,-58.40,-17.41,-75.44
1766237892861,-11.96,-19.32,-55.56,-52.500,335.449,1944.932,-29.27,-26.98,-55.13
1766237892871,-8.61,-10.90,-56.52,-1032.480,232.910,1565.049,-5.96,-24.29,1.62
1766237892880,-6.05,-0.39,-53.58,-1231.211,171.875,1271.104,9.79,-0.23,76.06
1766237892890,-1.14,3.04,-47.48,-268.320,307.129,1379.990,22.85,9.77,130.93
1766237892900,3.59,-3.08,-40.69,702.871,356.445,1440.049,42.23,-6.73,149.68
1766237892910,5.68,-12.25,-34.05,938.711,64.453,1238.389,65.98,-36.73,149.87
1766237892921,3.20,-18.23,-26.44,473.867,-282.227,1000.107,73.66,-53.41,141.31
1766237892931,-0.11,-18.25,-17.96,85.195,-299.805,1092.393,63.35,-52.66,146.24
1766237892941,-2.78,-16.08,-9.38,-56.895,-252.930,1042.588,54.23,-48.60,153.31
1766237892950,-2.96,-13.43,-1.16,-81.797,-98.633,1084.092,50.29,-44.10,160.06
1766237892960,-1.74,-8.86,6.80,-309.336,19.531,1161.729,40.73,-36.41,162.43
1766237892970,-0.79,-3.04,14.84,-592.051,-28.809,1287.705,34.60,-26.48,162.49
1766237892980,0.73,2.25,22.60,-594.980,-30.273,1289.658,34.16,-12.23,156.24
1766237892990,2.43,9.52,30.60,-903.086,-61.035,1229.600,30.66,9.52,158.37
1766237893000,4.99,15.02,38.53,-748.301,19.043,1237.900,23.29,27.27,153.24
1766237893010,8.33,18.47,46.47,-588.633,131.836,1195.420,16.10,37.90,146.87
1766237893021,11.52,18.80,53.47,-310.312,172.363,1004.502,13.48,35.46,128.31
1766237893030,13.18,18.26,59.38,-252.207,158.691,1009.873,6.41,35.65,112.87
1766237893040,13.09,15.95,64.10,-92.051,108.398,996.201,-0.02,32.65,96.56
1766237893050,11.97,12.40,67.83,50.039,91.797,1027.939,-6.59,26.46,78.12
1766237893060,8.62,12.98,70.90,-220.957,-69.824,1020.127,-14.21,25.71,71.81
1766237893070,5.52,13.46,73.61,-199.473,-78.125,1014.756,-20.15,26.02,63.24
1766237893081,2.04,17.06,76.18,-440.195,-158.203,1004.014,-27.02,33.65,61.62
1766237893090,1.15,18.26,79.13,-244.883,5.371,960.068,-29.09,39.34,58.49
1766237893100,2.75,16.31,82.48,-18.320,178.711,975.693,-26.77,36.40,51.99
1766237893110,4.54,12.68,85.56,150.137,282.227,1155.869,-25.96,29.02,45.93
1766237893120,4.56,8.40,87.87,302.969,200.195,1325.791,-25.40,24.52,39.43
1766237893130,4.38,4.20,89.12,391.836,204.590,1350.205,-23.90,20.52,19.93
1766237893140,3.14,1.11,89.10,343.008,74.707,1173.447,-22.46,25.34,-3.88
1766237893150,1.67,0.24,87.91,230.215,39.062,1154.893,-25.40,36.02,-27.26
1766237893161,1.98,-3.21,85.03,554.922,169.434,1160.752,-21.84,37.15,-62.76
1766237893171,3.75,-7.33,80.19,724.355,289.551,1201.768,-15.71,27.15,-101.13
1766237893181,6.29,-9.51,73.79,547.598,322.754,1205.674,-10.34,16.77,-130.44
1766237893191,8.13,-10.39,66.41,447.012,248.535,1249.131,-8.02,6.77,-153.51
1766237893201,9.38,-9.68,57.81,319.570,222.656,1260.850,-13.52,3.40,-182.63
1766237893211,10.59,-8.21,47.08,239.492,216.797,1187.119,-14.34,-2.29,-230.57
1766237893221,11.42,-1.37,34.79,-198.984,233.887,991.318,-16.02,5.59,-270.82
1766237893231,10.48,8.94,21.25,-561.289,241.211,852.158,-17.34,11.77,-298.07
1766237893240,3.97,17.28,6.45,-872.324,2.441,1314.072,-27.59,13.84,-296.19
1766237893251,-4.34,20.04,-9.13,-731.699,-331.055,1412.217,-2.90,-0.54,-280.32
1766237893261,-14.79,19.63,-25.70,-538.828,-946.777,1080.674,40.48,3.40,-264.57
1766237893271,-23.96,16.19,-41.39,-394.297,-1379.395,1201.279,49.60,24.59,-254.44
1766237893281,-30.93,8.39,-55.74,181.875,-1534.180,1118.760,49.29,38.09,-251.13
1766237893291,-34.32,-4.31,-68.60,827.383,-1322.266,808.213,49.85,26.40,-256.19
1766237893301,-32.66,-19.52,-81.52,950.430,-880.371,514.268,61.23,3.96,-279.32
1766237893311,-29.81,-31.16,-92.56,811.758,-909.180,525.986,51.73,-17.54,-264.44
1766237893321,-31.25,-35.31,-99.49,197.012,-1085.449,403.428,35.60,-28.23,-248.19
1766237893331,-28.83,-36.99,-107.46,125.234,-761.719,642.686,20.60,-37.91,-229.82
1766237893341,-24.23,-35.35,-115.94,-13.926,-478.027,744.248,5.10,-41.85,-194.26
1766237893351,-17.93,-30.41,-124.89,-246.348,-223.145,934.678,-10.27,-40.10,-158.38
1766237893361,-10.80,-25.14,-133.87,-178.477,29.785,922.959,-16.09,-26.41,-135.44
1766237893371,-0.85,-26.65,-144.15,333.730,399.902,1019.639,-10.65,-51.98,-136.13
1766237893381,8.37,-24.42,-154.19,109.121,489.746,1023.545,-4.34,-56.54,-134.76
1766237893391,18.41,-24.26,-165.20,415.762,771.973,1059.189,7.73,-68.54,-147.57
1766237893401,26.97,-20.87,-175.38,181.387,814.941,1080.186,20.91,-75.04,-149.13
1766237893411,32.46,-14.84,176.31,-154.551,844.238,1245.225,30.66,-77.85,-140.44
1766237893421,36.18,-9.73,169.32,-221.934,888.184,1374.131,45.23,-80.54,-122.76
1766237893431,39.10,-5.37,163.53,-338.145,934.082,1415.635,57.91,-80.91,-97.01
1766237893441,41.78,-2.57,158.87,-370.859,982.422,1431.260,70.79,-82.35,-64.13
1766237893451,44.20,-1.44,155.08,-338.145,926.270,1410.752,86.23,-85.73,-33.82
1766237893461,46.91,-1.96,152.28,-260.508,827.148,1205.186,99.10,-88.10,2.18
1766237893471,48.71,-6.77,149.54,108.633,638.184,1002.549,97.66,-102.16,22.87
1766237893481,47.21,-11.76,147.53,100.820,304.199,840.928,85.29,-111.23,37.74
1766237893491,43.87,-17.18,146.62,211.172,210.938,933.213,66.23,-107.73,38.43
1766237893501,40.62,-22.82,146.46,363.516,177.246,1005.967,61.41,-103.41,31.31
1766237893511,37.62,-25.62,146.80,303.945,166.016,1184.678,64.98,-94.16,16.81
1766237893521,34.96,-24.55,147.59,103.262,183.594,1566.025,71.29,-71.91,2.12
1766237893531,34.08,-21.56,146.68,187.734,196.777,1666.611,84.54,-43.23,-52.51
1766237893541,31.28,-16.73,145.86,55.410,-16.113,1428.330,72.66,-11.16,-75.69
1766237893551,27.56,-9.55,144.23,-122.324,-81.055,1183.701,56.16,18.65,-97.82
1766237893561,24.54,-2.35,141.63,-130.137,39.062,1158.311,39.98,43.52,-103.57
1766237893571,23.24,0.20,138.15,233.633,200.195,1306.260,40.35,49.84,-106.07
1766237893581,20.17,2.90,134.52,127.188,-41.504,1122.178,46.85,52.84,-104.69
1766237893591,13.49,0.73,130.70,443.105,-421.875,799.424,32.73,52.90,-101.26
1766237893601,6.23,-5.40,127.09,1010.000,-908.691,323.838,19.48,45.09,-101.01
1766237893611,-0.22,-14.59,123.56,1683.340,-1256.836,25.498,0.98,9.71,-109.88
1766237893621,-7.88,-24.88,121.81,1532.949,-1353.027,99.717,-13.71,-29.41,-104.94
1766237893631,-13.43,-31.33,120.42,1016.348,-788.574,978.135,-40.65,-48.73,-88.88
1766237893641,-10.90,-31.22,116.27,410.391,-22.949,1543.564,-38.40,-57.23,-61.51
1766237893651,-4.78,-29.54,111.73,139.395,439.453,1479.600,-19.96,-63.98,-37.51
1766237893661,1.97,-25.77,108.65,-162.363,769.531,1788.193,7.04,-57.04,-10.63
1766237893671,8.70,-21.51,108.19,-567.637,888.672,1829.697,44.98,-73.60,27.62
1766237893681,13.55,-15.69,111.10,-1049.570,585.938,1469.834,72.54,-75.35,76.81
1766237893691,15.20,-10.46,117.03,-875.254,169.434,1240.830,80.54,-60.23,125.31
1766237893701,13.37,-10.41,124.45,-284.922,-135.254,1215.439,81.16,-63.91,152.99
1766237893711,8.41,-17.88,134.21,426.016,-423.340,1037.217,87.79,-74.41,175.43
1766237893721,0.57,-25.13,146.22,599.844,-723.145,991.318,87.16,-93.04,174.81
1766237893731,-9.57,-27.04,159.37,247.793,-835.938,894.639,71.16,-103.10,159.62
1766237893741,-18.45,-24.16,171.66,-16.367,-733.887,810.166,51.98,-98.73,152.99
1766237893751,-18.83,-19.88,179.80,-127.207,-262.695,1025.010,38.04,-93.04,141.68
1766237893761,-16.09,-15.42,-173.84,-305.430,-41.504,1176.865,28.35,-87.98,126.87
1766237893771,-12.61,-10.38,-168.32,-536.875,70.801,1243.760,22.29,-79.73,112.18
1766237893781,-10.01,-4.05,-163.18,-838.633,11.719,1306.260,19.35,-61.98,102.37
1766237893791,-8.19,2.27,-158.34,-845.469,-66.406,1353.623,12.48,-33.98,98.18
1766237893801,-7.46,9.32,-153.67,-817.148,-195.312,1181.260,9.79,-2.60,99.43
1766237893811,-5.31,13.92,-149.07,-554.941,-28.320,1152.451,1.73,14.52,92.68
1766237893821,-1.93,14.64,-144.71,-239.023,145.996,1140.732,-4.59,20.90,77.68
1766237893831,1.50,13.52,-140.99,-87.168,240.234,1074.814,-8.90,22.09,61.56
1766237893841,4.38,11.31,-138.17,12.930,291.016,1098.252,-9.90,19.34,44.99
1766237893851,5.86,9.15,-136.37,26.113,257.812,1169.053,-10.77,13.90,29.99
1766237893861,6.88,7.28,-135.25,28.555,253.906,1154.404,-11.02,10.15,18.31
1766237893870,7.26,4.93,-135.00,87.148,208.984,1104.111,-9.52,3.84,3.06
1766237893881,7.57,4.93,-135.12,-59.824,185.059,972.764,-8.77,6.09,-4.63
1766237893891,8.29,4.86,-135.53,-53.965,253.906,1082.627,-9.46,6.65,-11.57
1766237893901,10.63,2.38,-136.30,191.641,460.938,1161.240,-8.77,4.90,-20.07
1766237893911,12.55,0.26,-137.85,191.641,460.938,1160.752,-7.96,-1.91,-33.19
1766237893921,14.65,-3.31,-140.73,397.207,503.906,1134.385,-6.59,-9.35,-56.76
1766237893931,16.23,-4.37,-144.90,229.238,437.988,1012.314,-11.46,-7.79,-83.82
1766237893941,17.86,-5.34,-150.74,264.883,415.039,862.900,-17.34,-6.91,-119.01
1766237893951,15.34,1.93,-157.04,-352.305,197.266,920.029,-30.27,3.65,-133.38
1766237893961,15.29,0.38,-164.80,356.191,527.832,1159.775,-36.90,0.96,-167.26
1766237893971,14.83,-0.32,-174.39,320.547,519.531,1323.350,-35.96,-8.73,-203.19
