Timestamp,Roll,Pitch,Yaw,AccX,AccY,AccZ,GyroX,GyroY,GyroZ
1766236918428,-16.39,8.95,-60.45,312.676,-319.453,1148.682,-18.42,72.08,18.65
1766236918431,-17.02,7.65,-60.83,299.980,-279.902,1132.080,-22.86,74.83,12.02
1766236918434,-17.01,5.95,-61.65,355.156,-209.590,1099.365,-24.49,76.83,2.46
1766236918437,-16.07,2.78,-63.16,518.242,-122.676,1100.830,-21.49,73.27,-13.29
1766236918440,23.06,-9.90,130.78,151.055,414.434,1010.986,14.14,-10.92,-6.91
1766236918446,22.87,-9.75,131.51,153.496,382.695,1034.424,11.08,-0.48,13.96
1766236918456,23.45,-10.65,132.91,234.551,459.355,1040.771,13.39,2.14,30.90
1766236918466,24.50,-13.88,134.39,453.301,489.629,1030.029,20.26,-3.61,35.77
1766236918476,25.03,-17.21,136.02,452.324,418.340,923.096,20.89,-8.42,38.96
1766236918486,24.62,-19.57,138.17,413.750,368.047,924.072,19.08,-7.23,44.96
1766236918496,23.72,-20.71,140.95,360.039,370.000,937.256,13.77,-1.23,54.65
1766236918506,23.96,-23.66,143.22,624.199,482.793,995.361,15.27,-2.05,51.33
1766236918516,24.95,-27.37,145.08,865.410,546.758,1016.846,23.14,-0.04,44.65
1766236918526,25.91,-30.21,146.53,863.457,527.227,1029.053,28.08,-2.92,34.46
1766236918536,27.28,-34.31,147.20,1145.195,478.398,969.971,35.45,-6.48,16.77
1766236918546,27.79,-37.54,147.87,1095.879,322.637,972.412,41.58,-11.80,0.90
1766236918556,27.25,-40.16,148.65,986.992,164.922,897.217,40.58,-15.92,-14.29
1766236918566,25.36,-42.94,149.85,894.707,-4.023,755.615,36.08,-19.05,-27.23
1766236918577,21.52,-44.78,152.20,853.691,-125.117,775.635,26.45,-15.11,-31.10
1766236918587,20.29,-46.13,152.52,1054.375,-17.207,895.752,24.64,-13.73,-38.85
1766236918597,20.29,-46.69,151.96,1061.211,35.039,974.365,29.33,-17.05,-44.54
1766236918607,18.07,-47.43,153.25,895.684,-142.695,876.221,34.51,-22.30,-42.60
1766236918617,11.42,-50.38,158.06,892.266,-460.078,687.744,29.95,-32.61,-32.85
1766236918627,2.05,-54.37,165.54,1008.965,-702.754,589.600,24.70,-44.61,-23.48
1766236918637,-10.24,-57.34,175.78,919.121,-796.992,492.432,12.89,-51.23,-17.79
1766236918647,-20.98,-57.29,-175.32,666.680,-647.090,542.236,2.14,-55.42,-19.92
1766236918657,-25.55,-52.76,-171.97,278.008,-380.488,588.623,-11.11,-53.23,-18.04
1766236918667,-18.60,-45.19,-177.81,-60.859,29.668,1069.580,-19.74,-41.98,-12.85
1766236918677,-9.30,-37.55,175.65,-212.227,449.590,1212.646,-11.92,-25.30,-8.16
1766236918686,-1.53,-29.22,171.48,-404.609,716.191,1475.830,-2.86,-12.67,2.02
1766236918696,4.25,-20.45,170.26,-546.699,734.746,1406.982,4.83,-0.54,24.90
1766236918706,8.25,-12.69,171.58,-450.996,620.000,1347.900,9.58,13.95,49.02
1766236918716,10.64,-9.58,174.77,-14.961,408.086,1330.322,24.14,18.83,70.40
1766236918726,9.69,-9.18,179.44,153.008,66.777,1101.318,27.76,16.45,89.02
1766236918736,7.03,-13.36,-175.17,540.703,-109.492,1065.186,27.58,3.95,99.40
1766236918746,1.22,-15.74,-167.99,435.234,-384.395,965.576,27.33,-0.23,116.96
1766236918757,-4.39,-17.95,-160.23,518.730,-437.129,973.389,24.70,-5.36,127.02
1766236918767,-9.56,-17.09,-152.48,289.238,-441.035,919.189,25.01,-8.67,129.09
1766236918777,-13.14,-14.36,-145.58,155.938,-364.375,914.307,14.77,-6.80,127.77
1766236918787,-14.66,-8.01,-139.88,-159.492,-274.043,944.092,4.14,-1.67,121.58
1766236918796,-13.39,-5.03,-135.07,16.289,-103.633,1036.377,-0.86,4.58,111.33
1766236918807,-11.81,-0.53,-130.43,-147.773,-75.801,1077.881,-2.80,14.64,108.15
1766236918816,-9.34,4.65,-125.67,-295.234,0.859,1157.471,-1.99,23.95,108.27
1766236918826,-6.29,7.76,-120.75,-183.418,67.266,1191.650,-0.86,33.58,105.58
1766236918837,-3.14,11.00,-115.49,-206.367,119.512,1166.748,-3.30,49.58,108.77
1766236918846,-0.68,14.23,-109.93,-243.477,77.520,1161.865,-2.86,60.58,112.77
1766236918856,2.49,13.91,-104.06,24.590,178.105,1173.096,-2.42,64.08,112.33
1766236918866,4.99,11.70,-98.26,199.395,190.801,1197.021,-1.67,63.46,112.58
1766236918876,6.15,11.08,-92.43,62.676,107.305,1177.002,-0.67,64.46,116.65
1766236918887,6.85,9.43,-86.72,164.727,92.168,1179.932,0.45,63.08,115.46
1766236918897,7.82,7.22,-81.07,241.387,148.320,1206.787,2.83,59.83,113.21
1766236918907,7.84,6.63,-75.41,99.785,76.055,1144.287,3.39,58.46,115.02
1766236918916,8.29,4.49,-69.96,238.457,123.418,1139.404,5.58,52.83,110.40
1766236918926,8.91,2.23,-64.74,275.078,166.875,1123.291,6.39,49.02,105.08
1766236918936,8.58,2.06,-59.52,98.809,102.910,1058.350,3.64,47.21,105.08
1766236918946,8.30,-0.36,-54.61,272.637,119.512,987.549,-0.11,41.64,99.08
1766236918956,6.86,-0.37,-49.69,99.297,39.434,953.369,-3.86,39.21,99.21
1766236918966,5.95,-2.45,-45.05,270.195,77.520,977.295,-6.92,34.64,94.08
1766236918976,3.52,-1.71,-40.45,78.789,-38.691,980.225,-11.86,34.39,92.65
1766236918986,1.50,-2.31,-36.12,200.859,-33.809,1020.752,-15.86,34.71,88.21
1766236918996,-0.04,-3.34,-32.24,247.734,-23.555,1030.029,-16.36,30.45,79.71
1766236919006,-1.72,-3.47,-28.49,208.184,-38.691,1046.631,-21.74,32.33,77.58
1766236919016,-1.90,-5.18,-25.16,377.129,79.961,1113.525,-23.30,29.64,71.77
1766236919026,-1.32,-7.61,-22.46,466.484,154.668,1117.920,-21.67,24.02,60.77
1766236919036,-0.73,-8.05,-20.12,325.859,180.059,1207.764,-22.86,22.83,54.58
1766236919046,-0.40,-6.63,-17.62,185.723,175.176,1297.119,-23.42,29.14,57.02
1766236919056,0.53,-7.52,-15.42,416.680,238.652,1316.650,-19.99,29.20,50.96
1766236919066,0.44,-6.75,-13.16,251.152,116.582,1364.502,-15.17,29.27,48.83
1766236919076,0.06,-6.64,-10.99,303.398,45.781,1321.533,-9.42,30.14,45.27
1766236919086,0.16,-9.41,-9.55,560.234,40.410,1248.779,-0.92,19.70,30.65
1766236919096,0.15,-11.86,-8.47,529.473,-12.324,1248.779,6.76,9.33,21.46
1766236919106,0.03,-14.08,-7.76,490.410,-64.570,1220.947,13.95,-1.73,11.77
1766236919116,1.38,-17.40,-8.44,615.410,24.785,1229.736,19.70,-13.42,-11.48
1766236919126,0.57,-13.01,-8.97,-83.809,-158.809,1137.451,19.95,-2.61,-22.17
1766236919137,-0.29,-5.38,-10.19,-389.961,-157.832,1117.920,13.39,23.33,-31.23
1766236919146,-0.09,0.74,-12.70,-284.492,-49.434,1150.635,11.52,42.83,-52.17
1766236919156,0.26,4.25,-16.96,-98.457,-21.113,1075.928,15.64,53.21,-87.29
1766236919166,-0.13,5.91,-23.88,12.871,-43.574,1075.928,16.01,56.39,-140.54
1766236919176,-1.71,6.64,-32.22,48.027,-116.328,1074.463,13.58,54.39,-165.54
1766236919186,-4.22,6.10,-42.42,99.297,-153.926,959.229,5.70,52.08,-199.10
1766236919196,-6.23,4.48,-54.38,119.316,-141.719,920.166,2.64,45.58,-233.10
1766236919207,-11.50,9.07,-67.82,-347.480,-316.035,795.166,-5.99,51.52,-247.04
1766236919217,-18.70,13.79,-81.74,-502.266,-433.223,753.174,-13.80,67.08,-237.54
1766236919227,-24.82,17.67,-94.93,-620.430,-464.473,810.791,-8.11,80.52,-218.98
1766236919237,-27.22,16.05,-106.15,-227.363,-392.207,989.990,2.76,88.83,-199.60
1766236919247,-30.74,16.50,-116.77,-303.047,-542.598,925.049,2.58,107.77,-168.79
1766236919257,-30.43,9.74,-125.99,351.738,-326.289,873.779,4.83,108.14,-155.79
1766236919267,-29.33,-0.21,-135.16,768.730,-252.070,687.256,4.58,95.39,-153.91
1766236919277,-28.00,-11.39,-144.10,967.461,-234.004,500.244,-1.55,72.64,-154.85
1766236919295,-26.01,-22.26,-152.60,945.000,-246.211,434.326,-6.92,45.83,-154.10
1766236919342,-22.07,-31.89,-161.42,882.500,-157.832,451.904,-15.86,20.39,-151.35
1766236919344,-16.44,-38.60,-170.75,789.238,-88.984,565.674,-24.92,-0.98,-141.16
1766236919347,-8.52,-43.59,178.60,848.809,71.660,676.025,-30.30,-21.61,-131.29
1766236919350,-0.58,-44.06,168.25,548.027,127.324,758.057,-31.61,-38.11,-116.29
1766236919353,4.95,-42.04,159.98,395.195,154.180,876.221,-33.67,-51.98,-98.79
1766236919356,9.29,-41.20,152.83,485.527,210.332,948.486,-31.49,-63.92,-87.23
1766236919359,12.46,-39.09,146.82,367.363,259.648,974.365,-32.80,-65.23,-72.60
1766236919367,15.39,-37.45,141.22,391.777,325.078,1031.006,-27.99,-69.54,-66.48
1766236919377,17.19,-34.47,136.75,263.359,350.469,1095.947,-25.42,-64.23,-56.10
1766236919387,18.88,-32.16,132.40,308.770,396.367,1171.631,-20.17,-63.42,-57.54
1766236919397,19.59,-27.82,128.99,58.770,343.633,1082.275,-16.17,-56.04,-51.60
1766236919407,20.21,-23.36,126.27,-2.754,453.008,1257.080,-12.36,-44.86,-40.17
1766236919416,21.36,-20.04,123.85,51.445,501.836,1252.197,-1.05,-39.29,-34.35
1766236919427,22.85,-16.69,121.98,-9.590,489.141,1107.666,8.95,-32.79,-24.92
1766236919437,23.87,-13.22,121.10,-77.949,493.535,1130.615,13.89,-23.42,-10.23
1766236919447,24.35,-10.88,121.19,-42.305,466.191,1152.588,18.70,-17.42,6.90
1766236919456,25.01,-9.88,121.92,37.285,482.305,1126.709,22.08,-12.67,20.58
1766236919467,25.96,-10.27,123.16,162.773,525.762,1150.635,26.45,-7.05,30.90
1766236919476,26.55,-9.81,125.13,86.602,479.863,1126.709,32.39,0.33,41.58
1766236919486,27.12,-11.19,127.39,254.570,479.375,1092.529,32.76,3.20,47.46
1766236919496,27.00,-11.94,130.25,203.789,410.039,1016.357,32.08,7.77,55.83
1766236919506,25.86,-10.77,134.18,52.910,371.953,1045.166,25.39,17.14,72.40
1766236919517,25.39,-11.73,138.72,238.457,434.941,1057.861,24.14,24.33,86.52
1766236919527,24.81,-14.12,143.81,431.816,449.590,1105.713,25.26,29.95,95.02
1766236919537,24.47,-19.70,148.58,766.289,389.043,908.447,27.26,25.83,88.08
1766236919546,22.81,-26.36,153.30,869.805,239.629,716.064,20.95,18.83,78.77
1766236919556,21.72,-33.51,156.20,1282.891,212.285,740.479,21.89,4.58,43.08
1766236919566,20.57,-38.74,157.62,1210.625,99.492,738.525,20.83,0.21,3.40
1766236919577,19.01,-42.22,158.09,1149.590,-41.621,789.307,19.51,-3.86,-31.42
1766236919586,13.45,-42.93,160.55,716.973,-260.371,710.205,6.33,0.39,-46.23
1766236919597,10.07,-43.27,160.93,864.922,-230.586,824.951,-0.92,4.64,-57.67
1766236919607,8.47,-42.76,159.58,855.645,-161.250,869.873,-5.49,10.20,-68.17
1766236919616,8.75,-39.62,156.99,673.027,-17.207,977.783,-3.99,19.70,-68.67
1766236919626,9.08,-36.97,155.01,682.793,30.156,1012.451,1.45,22.33,-53.60
1766236919637,8.64,-38.22,153.82,903.496,-12.812,843.506,-0.30,13.14,-40.85
1766236919646,5.89,-40.90,154.92,968.438,-173.457,772.705,3.51,1.64,-21.54
1766236919657,1.97,-45.68,157.37,1070.977,-248.164,601.807,0.64,-15.92,-7.60
1766236919667,-5.68,-49.47,162.76,818.535,-354.609,483.643,-11.61,-29.17,2.02
1766236919677,-11.18,-49.21,166.78,579.277,-250.605,618.408,-15.30,-32.73,9.34
1766236919687,-11.02,-42.74,166.48,196.465,-71.895,933.350,-20.49,-25.98,12.71
1766236919697,-5.80,-36.47,163.18,152.520,306.523,1291.260,-13.55,-14.67,9.96
1766236919707,-0.59,-28.71,160.88,-203.438,456.426,1359.131,-3.24,-13.61,12.27
1766236919716,2.21,-19.32,160.96,-520.332,316.289,1214.111,3.33,-4.86,24.33
1766236919726,3.14,-10.00,162.90,-585.762,199.590,1198.975,1.64,12.70,44.33
1766236919736,2.21,-1.76,166.63,-546.699,33.574,1275.635,-4.49,33.02,74.02
1766236919746,1.76,-0.72,171.15,90.508,24.297,1306.885,-2.17,34.33,92.40
1766236919756,0.38,-2.38,176.24,305.352,-97.285,1151.123,3.01,28.95,104.02
1766236919767,-2.50,-4.17,-178.52,327.324,-251.094,1048.096,5.39,22.77,105.90
1766236919777,-5.73,-5.28,-173.09,336.113,-313.105,1024.658,3.14,25.70,109.08
1766236919787,-8.09,-3.65,-167.61,157.891,-296.992,1121.338,-0.49,29.20,114.90
1766236919797,-8.55,-1.35,-162.41,75.859,-163.203,1150.635,-4.92,31.52,114.83
1766236919807,-8.10,0.49,-157.37,88.066,-78.242,1055.908,-9.11,38.02,113.02
1766236919817,-7.34,5.60,-152.17,-200.996,-65.547,1115.479,-10.92,48.27,117.46
1766236919827,-5.72,9.81,-146.75,-208.809,-17.695,1227.295,-9.61,57.64,118.46
1766236919837,-3.12,11.23,-141.23,-18.867,84.355,1241.455,-8.48,62.46,113.58
1766236919847,-0.58,10.10,-135.90,181.328,124.395,1193.604,-6.11,61.52,107.08
1766236919857,1.00,11.24,-130.74,-15.449,70.684,1180.908,-4.42,66.77,104.83
1766236919866,2.45,11.48,-125.68,40.703,86.797,1150.635,-4.92,67.83,100.83
1766236919876,3.21,11.11,-120.57,96.367,54.570,1142.822,-6.36,69.96,103.08
1766236919887,2.86,10.44,-115.63,123.711,-19.648,1112.549,-9.05,68.71,103.02
1766236919897,2.02,10.58,-110.66,79.277,-64.570,1127.197,-10.98,71.21,105.40
1766236919907,1.42,10.09,-105.77,133.477,-50.410,1151.611,-12.23,68.77,103.52
1766236919916,1.37,9.36,-100.91,175.957,0.859,1177.490,-12.86,69.33,101.08
1766236919926,1.10,9.91,-96.09,73.906,-15.742,1149.658,-13.86,71.71,100.83
1766236919936,1.78,8.06,-91.46,291.680,77.031,1141.846,-12.80,69.71,93.96
1766236919946,1.61,8.33,-86.90,117.363,18.926,1085.205,-14.17,71.77,94.15
1766236919956,1.41,5.82,-82.65,353.691,93.145,1031.982,-30.55,67.89,85.58
1766236919966,1.01,5.33,-78.61,189.141,24.297,968.018,-17.36,66.27,83.40
1766236919976,0.29,4.71,-74.67,215.020,15.996,971.924,-22.49,67.02,81.77
1766236919986,0.13,3.16,-70.91,294.609,63.848,987.061,-23.67,61.46,77.65
1766236919996,-0.55,3.73,-67.12,146.172,40.898,1036.377,-28.99,61.71,79.27
1766236920007,-0.39,3.17,-63.24,236.016,110.723,1018.799,-31.05,61.71,80.33
1766236920016,0.51,0.38,-59.60,420.098,189.824,997.314,-29.17,52.83,75.33
1766236920027,1.65,-2.16,-56.13,434.746,255.254,1062.256,-28.24,44.83,73.40
1766236920037,2.34,-3.97,-52.57,409.844,264.043,1163.330,-28.24,39.27,75.90
1766236920047,2.55,-6.12,-49.15,458.672,228.887,1208.252,-24.17,31.27,73.08
1766236920057,2.02,-7.71,-45.66,409.355,150.762,1193.604,-21.92,26.39,73.52
1766236920066,0.99,-9.09,-42.15,428.398,83.379,1260.986,-18.49,22.64,72.90
1766236920077,-0.44,-10.16,-38.74,389.824,-7.441,1230.713,-12.61,16.33,69.08
1766236920087,-2.23,-11.07,-35.36,380.059,-87.520,1188.721,-8.73,13.89,66.58
1766236920097,-3.16,-12.65,-32.68,430.352,-69.941,1129.150,-2.74,8.20,53.90
1766236920107,-4.74,-10.12,-30.08,97.832,-146.113,1122.314,-4.05,15.39,50.83
1766236920117,-4.32,-9.03,-28.54,184.258,-26.973,1144.287,-0.67,15.39,35.58
1766236920126,-3.11,-7.22,-27.89,102.715,34.062,1181.885,0.89,18.08,18.83
1766236920136,-2.00,-4.40,-27.83,-6.660,33.086,1198.975,2.39,24.89,5.02
1766236920146,-0.92,-1.75,-28.74,-10.078,38.945,1193.115,4.14,34.02,-16.35
1766236920157,-1.52,4.48,-30.40,-330.879,-82.148,1163.330,1.76,52.33,-31.54
1766236920166,-1.07,7.21,-33.22,-44.746,26.250,1102.783,2.14,68.08,-56.85
1766236920176,-1.44,9.63,-37.81,-46.699,-1.094,1116.455,1.64,74.08,-91.60
1766236920187,-3.26,12.66,-44.25,-131.660,-88.496,1095.947,2.26,79.89,-122.60
1766236920197,-4.74,12.44,-52.17,85.625,-47.969,1052.490,1.95,82.46,-152.54
1766236920206,-5.39,9.35,-61.65,295.586,-4.023,1029.053,3.01,75.52,-185.10
1766236920217,-6.92,6.36,-72.67,247.734,-107.539,893.799,5.83,68.21,-210.79
1766236920227,-11.64,8.83,-84.85,-141.426,-296.992,770.264,2.95,71.21,-220.73
1766236920237,-15.26,8.77,-97.04,-51.094,-295.039,878.662,-2.49,78.21,-221.54
1766236920247,-20.21,12.53,-109.16,-376.777,-414.180,861.084,-8.73,90.77,-206.85
1766236920257,-25.68,15.27,-120.58,-360.664,-486.445,861.572,-14.73,106.52,-182.66
1766236920267,-27.27,13.03,-130.06,51.934,-322.871,952.393,-16.05,117.14,-158.54
1766236920277,-27.81,7.95,-138.77,343.926,-274.531,853.271,-18.05,117.83,-143.48
1766236920287,-27.95,-0.41,-147.26,684.746,-254.023,693.604,-16.92,103.58,-140.54
1766236920297,-25.44,-9.39,-155.57,822.930,-74.336,610.596,-19.80,85.33,-136.29
1766236920307,-23.93,-17.61,-163.31,748.711,-179.805,554.932,-26.99,63.39,-132.73
1766236920317,-20.98,-25.17,-171.15,748.711,-115.840,559.814,-30.36,40.64,-129.98
1766236920327,-15.95,-31.32,-179.61,715.020,-8.418,608.643,-31.55,16.83,-125.79
1766236920337,-9.76,-37.26,171.44,943.047,124.883,717.529,-35.42,-5.80,-118.04
1766236920347,-3.29,-39.02,162.75,619.316,142.461,809.326,-32.49,-25.80,-104.48
1766236920357,2.11,-38.35,155.11,431.328,160.527,845.947,-30.55,-40.92,-92.79
1766236920367,6.63,-38.77,148.34,542.656,209.355,915.771,-26.55,-53.54,-83.04
1766236920377,8.99,-36.94,143.40,338.066,176.641,951.416,-27.11,-58.11,-66.17
1766236920387,11.36,-35.97,138.68,381.523,227.910,974.365,-23.24,-63.86,-60.54
1766236920397,12.72,-33.48,134.84,239.434,224.004,1008.057,-21.49,-61.42,-53.10
1766236920407,15.09,-32.68,130.40,389.336,322.637,1078.857,-14.92,-63.86,-56.79
1766236920417,15.90,-28.86,126.98,87.090,260.625,1050.537,-15.48,-58.54,-52.73
1766236920427,16.69,-23.58,124.03,-86.250,355.840,1145.264,-15.98,-45.29,-44.60
1766236920437,18.16,-20.49,121.12,75.371,438.359,1155.029,-8.55,-38.92,-41.54
1766236920447,18.61,-15.39,119.29,-153.145,376.836,1097.900,-5.55,-26.42,-30.92
1766236920457,19.60,-11.85,117.89,-69.160,454.961,1087.646,-3.36,-17.11,-20.98
1766236920467,19.98,-8.56,117.20,-99.434,423.223,1091.553,-1.42,-10.17,-11.16
1766236920476,20.73,-8.18,116.98,109.062,438.359,1040.771,2.70,-6.48,-0.54
1766236920487,20.87,-5.61,117.76,-97.969,410.039,1056.885,3.01,0.96,16.46
1766236920497,21.59,-6.47,119.10,187.676,506.719,1152.100,5.39,5.77,28.71
1766236920506,22.83,-7.52,120.91,217.461,545.293,1128.174,11.95,8.89,38.83
1766236920517,23.91,-8.77,123.10,244.805,526.250,1095.947,16.39,10.64,45.71
1766236920526,25.04,-8.11,125.99,89.531,559.453,1101.807,18.95,19.14,57.90
1766236920537,25.38,-9.23,129.73,272.637,525.273,1156.494,21.33,27.45,70.77
1766236920547,25.56,-9.69,134.10,239.434,533.574,1172.607,22.58,34.77,80.83
1766236920557,25.66,-13.08,138.99,482.598,462.773,972.900,22.45,36.77,90.77
1766236920567,24.82,-19.49,143.99,813.164,360.723,830.322,19.01,30.77,89.15
1766236920577,23.25,-27.17,148.38,1051.445,254.277,696.045,15.39,17.95,72.77
1766236920587,21.63,-34.26,151.58,1350.273,216.680,718.506,13.33,10.77,45.27
1766236920597,21.14,-40.01,152.19,1387.871,157.109,721.924,13.77,-2.73,-2.35
1766236920607,18.85,-43.00,152.78,992.852,-58.223,719.482,10.70,-5.61,-35.73
1766236920617,14.19,-41.03,154.40,625.664,-174.922,885.986,3.64,5.02,-51.10
1766236920627,11.22,-38.04,154.41,600.762,-144.648,975.830,2.14,15.27,-60.48
1766236920637,9.49,-34.00,153.58,550.957,-55.293,1095.947,-1.61,27.08,-54.48
1766236920647,9.91,-33.08,151.86,820.488,88.750,1028.564,2.08,31.89,-45.04
1766236920657,9.78,-35.60,150.76,929.863,12.578,735.107,5.14,23.52,-37.48
1766236920667,6.17,-38.71,152.20,967.461,-221.797,760.010,0.76,5.70,-22.29
1766236920677,1.21,-43.53,155.20,1111.992,-328.242,624.756,-2.74,-8.92,-6.35
1766236920687,-5.10,-48.90,159.54,1091.484,-375.605,487.061,-9.92,-25.67,0.02
1766236920697,-13.11,-52.16,165.45,836.113,-366.816,453.857,-18.80,-32.29,7.21
1766236920707,-13.43,-51.69,165.49,736.992,-105.098,819.580,-17.80,-39.73,7.34
1766236920717,-7.60,-47.51,161.12,404.473,187.871,1158.936,-6.49,-44.61,0.08
1766236920727,-1.58,-40.15,157.36,-88.691,346.074,1270.752,2.64,-42.11,2.46
1766236920737,1.81,-30.09,156.22,-617.500,375.859,1355.713,2.89,-21.67,15.71
1766236920747,3.74,-20.24,156.94,-586.738,327.520,1347.900,3.70,-0.67,31.27
1766236920757,6.27,-12.76,158.80,-358.711,394.414,1248.291,7.45,11.64,51.52
1766236920767,8.32,-11.73,161.79,181.328,343.145,1272.217,17.26,9.64,68.08
1766236920777,8.79,-11.96,165.69,223.320,180.059,1132.080,23.45,4.33,80.08
1766236920787,7.10,-13.68,170.34,319.512,0.371,1032.471,23.33,-0.92,86.71
1766236920797,2.17,-13.72,176.22,210.137,-251.094,951.904,18.14,-1.42,96.65
1766236920807,-2.95,-11.57,-177.66,62.188,-348.750,963.135,15.52,-3.36,103.65
1766236920817,-6.84,-11.52,-171.69,254.082,-350.703,984.131,14.02,-0.67,107.77
1766236920827,-9.53,-7.37,-165.86,-40.840,-315.059,1007.568,9.83,6.70,115.08
1766236920837,-11.31,-1.86,-160.24,-180.488,-312.129,1042.236,3.14,16.83,120.71
1766236920847,-11.11,1.81,-155.10,-91.133,-193.477,1112.061,-2.36,25.33,115.83
1766236920857,-9.67,3.75,-150.39,0.176,-81.660,1113.037,-5.36,31.14,105.52
1766236920867,-8.33,7.49,-145.91,-175.605,-69.453,1095.459,-7.74,39.64,100.02
1766236920877,-6.38,9.06,-141.47,-53.535,-11.836,1127.686,-6.61,43.21,94.96
1766236920887,-4.20,9.33,-137.09,35.820,54.082,1145.264,-8.61,46.83,90.52
1766236920897,-2.71,10.62,-132.58,-56.465,34.062,1165.771,-10.98,51.39,93.33
1766236920907,-0.92,10.28,-127.93,66.582,84.844,1078.369,-11.36,53.52,93.58
1766236920917,-0.27,10.67,-123.18,6.035,6.719,1161.377,-10.36,54.64,98.77
1766236920927,0.30,10.40,-118.18,70.000,14.531,1138.428,-11.80,57.77,103.58
1766236920937,0.79,10.45,-113.09,40.215,17.461,1149.170,-11.86,57.58,105.65
1766236920947,1.65,9.06,-108.01,166.191,68.242,1133.545,-11.80,56.33,103.71
1766236920957,2.02,8.60,-103.01,92.949,48.711,1107.178,-12.42,55.58,102.83
1766236920967,3.26,5.89,-98.30,298.027,159.062,1110.107,-12.17,50.71,94.58
1766236920977,3.48,5.49,-93.69,111.016,96.562,1064.697,-13.67,50.14,93.77
1766236920987,4.02,2.77,-89.47,303.887,146.855,1043.701,-14.36,43.83,85.71
1766236920997,3.57,1.42,-85.46,197.930,81.426,986.084,-15.92,40.08,82.08
1766236921007,2.31,0.67,-81.47,179.863,26.738,1011.963,-19.67,40.02,82.27
1766236921017,1.91,-1.38,-77.81,294.121,84.355,1000.732,-18.86,35.33,76.02
1766236921027,1.16,-2.21,-74.23,222.832,66.777,1007.080,-21.86,34.39,74.46
1766236921037,0.68,-2.60,-70.66,211.113,91.680,1037.354,-24.17,34.46,75.02
1766236921047,1.53,-5.77,-67.70,461.602,213.750,1051.514,-21.61,26.08,65.27
1766236921057,2.05,-7.51,-65.03,356.133,209.844,1084.229,-22.24,19.70,59.52
1766236921067,2.63,-8.60,-62.49,325.371,231.328,1111.084,-21.42,17.89,57.90
1766236921077,3.07,-8.77,-59.93,268.242,248.906,1181.396,-22.36,17.20,58.33
1766236921087,3.39,-9.27,-57.46,306.328,237.676,1207.764,-19.55,16.27,55.65
1766236921097,2.81,-9.42,-55.02,291.191,145.879,1274.170,-17.55,15.39,51.71
1766236921107,1.24,-8.37,-52.46,171.562,13.555,1254.639,-15.23,16.77,51.21
1766236921117,0.09,-9.34,-50.22,330.742,-13.301,1122.803,-8.92,16.45,44.46
1766236921127,-1.36,-10.88,-48.47,380.059,-91.426,1066.650,-3.17,13.39,32.52
1766236921137,-1.78,-11.25,-47.19,297.539,-39.180,1066.162,-0.55,12.64,25.77
1766236921147,-1.48,-12.46,-46.21,365.898,-3.535,1053.467,3.89,9.27,21.71
1766236921157,-0.20,-14.46,-46.04,452.812,69.707,1129.639,7.08,-0.04,8.90
1766236921167,0.68,-14.95,-46.48,335.137,21.367,1165.771,10.70,-3.36,-7.35
1766236921177,-0.26,-10.19,-46.99,-104.805,-126.094,1111.084,9.02,10.27,-16.48
1766236921187,-1.65,-4.35,-48.16,-218.086,-180.781,1120.850,6.76,29.89,-26.92
1766236921197,-2.48,0.96,-50.22,-220.039,-150.020,1208.740,5.51,47.21,-39.98
1766236921207,-3.48,4.01,-53.21,-68.672,-170.527,1213.623,6.76,56.27,-57.23
1766236921217,-4.49,5.39,-57.23,48.516,-171.504,1126.709,9.33,62.64,-76.23
1766236921227,-3.00,1.88,-63.06,433.770,1.348,1118.896,18.01,50.64,-114.29
1766236921237,-2.53,-0.35,-70.93,287.773,-89.961,1044.678,19.58,37.71,-155.54
1766236921247,-3.28,-1.03,-80.50,147.148,-157.344,929.443,14.70,33.52,-190.04
1766236921257,-6.29,2.58,-91.30,-151.680,-242.305,778.076,6.76,40.89,-209.73
1766236921267,-8.74,3.05,-102.91,-13.984,-180.781,718.994,-0.61,46.71,-223.66
1766236921277,-11.56,5.28,-114.69,-164.375,-209.590,772.217,-8.98,49.89,-224.60
1766236921287,-15.86,9.86,-126.04,-358.711,-275.996,722.900,-16.49,63.21,-206.79
1766236921297,-19.17,11.61,-135.99,-236.152,-274.043,845.947,-19.61,74.71,-180.48
1766236921307,-21.09,10.68,-144.57,-39.863,-258.418,926.025,-21.11,82.21,-156.48
1766236921317,-23.10,7.09,-152.32,189.629,-289.668,842.529,-25.49,84.83,-137.91
1766236921327,-24.09,1.18,-159.36,426.445,-248.652,758.057,-29.36,83.46,-123.98
1766236921337,-23.90,-6.19,-165.91,610.527,-188.594,683.838,-31.67,71.64,-114.85
1766236921347,-21.47,-15.87,-172.87,1013.848,-9.883,656.982,-32.24,45.96,-121.04
1766236921357,-17.97,-24.24,179.70,882.988,-5.000,651.611,-33.74,23.89,-124.10
1766236921367,-13.43,-30.76,171.98,727.227,30.645,626.709,-34.74,3.08,-117.60
1766236921377,-7.49,-36.65,163.43,852.715,132.207,717.529,-33.55,-20.11,-115.98
1766236921387,-0.72,-39.39,154.43,668.633,194.219,794.189,-32.36,-37.23,-108.29
1766236921397,4.50,-39.19,146.95,471.855,177.617,866.455,-27.24,-50.04,-91.73
1766236921407,8.12,-37.97,141.12,388.848,186.406,927.979,-22.49,-58.98,-74.35
1766236921417,10.58,-37.01,136.40,409.355,219.609,993.896,-23.05,-62.73,-59.79
1766236921427,11.96,-36.42,132.65,396.172,180.059,977.295,-17.74,-67.67,-51.98
1766236921437,13.94,-34.89,128.82,317.559,283.574,988.525,-19.24,-65.17,-43.23
1766236921447,14.95,-34.35,125.45,402.520,252.812,1070.557,-16.86,-68.36,-44.73
1766236921457,15.62,-31.88,122.40,209.648,240.117,1048.584,-13.42,-64.86,-44.17
1766236921467,15.63,-27.09,120.27,-14.473,249.395,1080.322,-11.80,-50.73,-34.29
1766236921477,15.77,-22.28,118.77,-75.020,319.219,1169.189,-8.61,-38.67,-21.54
1766236921487,17.25,-19.02,117.14,28.496,426.641,1140.381,-0.42,-30.98,-18.04
1766236921497,18.07,-15.77,116.28,-6.660,370.977,1088.135,5.45,-22.17,-10.04
1766236921507,18.66,-12.21,116.18,-72.090,378.789,1102.295,8.27,-11.61,1.27
1766236921517,19.30,-7.77,116.93,-205.391,401.738,1090.576,9.39,-0.17,15.52
1766236921527,20.65,-6.13,118.25,-7.148,487.676,1127.686,13.39,8.02,27.71
1766236921537,22.11,-6.13,120.09,117.852,488.652,1110.107,20.70,12.14,37.27
1766236921547,23.64,-6.89,122.40,175.469,473.516,1030.518,25.70,15.58,46.02
1766236921557,24.74,-7.90,125.17,210.625,481.328,1061.768,26.70,18.39,54.40
1766236921567,25.05,-8.51,128.77,184.258,450.566,1063.721,24.95,23.77,68.40
1766236921577,25.78,-11.19,132.71,396.172,510.625,1060.303,26.26,25.20,76.83
1766236921587,26.24,-14.78,136.94,480.645,469.121,914.307,23.45,26.08,82.21
1766236921597,25.08,-20.20,141.68,665.215,340.215,817.627,18.58,22.52,85.52
1766236921607,23.85,-27.71,145.90,1038.750,320.195,720.947,13.14,12.52,75.27
1766236921617,23.39,-35.01,148.05,1354.668,304.082,754.639,18.01,-5.86,38.15
1766236921627,22.25,-39.20,149.22,1111.016,172.734,825.439,16.76,-8.36,3.09
1766236921637,21.69,-41.20,149.11,1037.285,114.141,901.611,20.83,-7.98,-29.60
1766236921647,18.00,-39.84,150.65,649.590,-106.562,939.209,19.83,-3.17,-43.54
1766236921657,14.36,-38.15,151.64,625.176,-147.090,951.904,12.27,2.89,-49.60
1766236921667,11.65,-36.42,151.60,629.082,-112.910,942.139,4.20,11.20,-52.79
1766236921677,12.16,-37.11,149.44,950.371,40.898,936.768,6.64,15.02,-57.60
1766236921687,11.51,-38.55,148.27,924.492,-45.527,822.998,7.39,12.33,-50.73
1766236921697,7.95,-42.26,149.41,964.531,-206.172,618.896,-3.11,2.70,-31.85
1766236921707,5.19,-49.24,151.22,1287.773,-182.734,410.400,2.14,-20.61,-7.41
1766236921717,-4.20,-54.10,158.43,1069.512,-469.355,478.760,-10.55,-39.67,5.90
1766236921727,-16.48,-57.35,168.59,1024.102,-554.805,449.951,-18.86,-46.92,18.15
1766236921737,-23.02,-56.85,174.31,873.711,-418.086,780.029,-16.05,-57.11,18.08
1766236921747,-19.34,-51.71,172.35,398.125,-34.297,1220.459,-5.92,-58.36,27.71
1766236921757,-14.46,-45.30,169.74,132.012,193.242,1382.568,-12.92,-50.29,36.71
1766236921767,-8.17,-37.14,167.22,-334.297,484.258,1287.842,-7.11,-38.36,45.58
1766236921777,-3.21,-28.17,167.05,-514.961,530.156,1320.068,2.20,-22.36,58.58
1766236921787,2.94,-21.70,167.83,-249.824,572.637,1278.076,30.33,-15.73,60.83
1766236921797,5.25,-14.75,170.48,-348.457,345.586,1155.029,10.14,-6.36,70.83
1766236921807,7.51,-14.30,173.40,185.234,368.535,1165.771,9.83,-7.67,73.33
1766236921817,8.19,-14.67,176.94,221.367,219.121,1109.619,17.08,-11.17,77.52
1766236921827,7.77,-17.96,-179.33,462.578,118.047,1057.861,20.70,-18.92,76.33
1766236921837,4.95,-18.24,-174.61,215.508,-57.246,981.689,18.14,-22.80,82.21
1766236921847,2.99,-19.29,-170.01,287.285,-42.109,1029.053,19.95,-28.80,83.46
1766236921857,0.26,-16.11,-164.73,-37.422,-118.770,1007.568,17.51,-26.30,94.21
1766236921867,-0.19,-13.54,-159.97,-23.750,9.160,1118.408,15.39,-23.48,97.21
1766236921878,-1.01,-9.33,-154.89,-180.488,-46.992,1158.447,13.20,-12.23,103.58
1766236921887,-2.09,-3.80,-149.51,-317.207,-130.000,1107.666,14.52,1.58,110.90
1766236921897,-2.38,0.27,-144.40,-219.551,-110.957,1096.436,13.27,13.33,108.40
1766236921907,-2.70,3.04,-139.48,-120.430,-119.746,1025.635,9.20,24.02,105.58
1766236921917,-2.98,6.03,-134.64,-157.051,-133.906,1055.420,5.89,32.77,105.46
1766236921927,-1.87,6.49,-130.09,4.082,-24.043,1078.369,5.33,34.14,96.46
1766236921937,-1.15,7.71,-125.52,-53.535,-29.414,1093.506,1.76,39.77,97.27
1766236921946,0.29,7.39,-120.99,49.492,52.129,1129.639,1.39,38.89,93.58
1766236921957,1.51,7.03,-116.58,51.445,65.312,1114.502,0.58,39.27,90.77
1766236921967,1.91,7.10,-112.23,7.500,15.508,1104.248,0.39,37.52,90.77
1766236921977,2.52,6.31,-107.82,83.672,43.828,1101.807,0.39,38.58,91.52
1766236921987,2.68,5.27,-103.37,105.645,15.020,1094.482,1.51,35.39,93.27
1766236921997,2.78,3.47,-98.96,182.793,25.762,1087.646,0.64,32.83,92.58
1766236922007,2.25,2.22,-94.59,141.289,-21.602,1047.607,1.51,27.89,92.46
1766236922017,1.93,0.48,-90.33,198.906,9.648,1045.654,-1.55,24.83,89.71
1766236922027,1.74,-2.04,-86.49,270.684,20.879,1032.471,0.39,17.58,81.08
1766236922037,1.20,-3.01,-82.78,183.281,17.949,1030.518,-4.67,17.89,77.77
1766236922047,0.91,-5.12,-79.57,294.609,38.945,1033.447,-5.55,14.58,67.58
1766236922057,0.84,-7.30,-77.03,321.465,65.312,1018.311,-7.36,10.58,54.33
1766236922067,0.45,-9.13,-74.92,320.977,41.387,1011.963,-8.23,8.33,44.58
1766236922077,-0.44,-8.64,-72.94,174.492,9.160,1048.584,-12.61,11.58,41.15
1766236922087,-1.18,-8.71,-71.03,211.602,9.160,1027.588,-13.61,11.33,40.21
1766236922097,-0.48,-11.22,-69.63,417.656,120.000,1033.447,-12.30,5.89,34.83
1766236922107,0.07,-12.46,-68.33,315.605,113.164,1002.197,-11.98,1.83,32.46
1766236922117,2.36,-12.72,-67.40,266.777,298.711,1052.002,-13.86,2.33,34.27
1766236922127,3.06,-11.89,-65.84,179.863,206.426,1098.389,-13.92,3.33,39.77
1766236922137,3.91,-11.22,-64.18,176.445,252.324,1204.346,-12.98,0.08,42.02
1766236922147,3.83,-10.47,-62.10,156.914,172.734,1270.752,-10.05,-0.42,46.21
1766236922157,4.35,-11.53,-60.35,322.441,216.680,1332.764,-5.24,-5.86,40.83
1766236922167,3.98,-12.18,-58.87,270.195,83.867,1253.174,0.95,-8.73,30.65
1766236922177,2.78,-11.18,-57.55,124.688,-41.133,1211.670,6.20,-5.92,22.02
1766236922187,2.37,-11.90,-57.00,275.566,-32.344,1166.260,12.64,-5.36,7.90
1766236922197,2.61,-13.40,-57.60,350.762,-31.367,1168.213,18.58,-10.23,-15.04
1766236922207,1.18,-10.01,-58.31,-48.164,-169.062,1093.994,16.83,-0.04,-24.29
1766236922217,0.38,-6.82,-59.82,-38.398,-132.441,1131.592,13.70,12.83,-36.04
1766236922227,-0.96,-2.68,-62.02,-151.680,-197.383,1117.432,14.52,22.39,-48.23
1766236922237,-0.87,-1.85,-65.53,90.508,-93.379,1092.529,16.51,27.64,-71.98
1766236922247,-0.40,-3.42,-70.93,257.988,-83.613,1022.217,20.95,23.39,-109.48
1766236922257,-1.22,-3.77,-77.95,161.309,-177.852,919.678,21.58,23.14,-143.79
1766236922267,-2.12,-4.26,-86.56,158.867,-180.293,858.154,17.58,23.95,-174.66
1766236922277,-3.19,-5.00,-96.16,161.797,-187.129,827.881,11.08,23.20,-193.60
1766236922287,-4.47,-4.39,-106.26,64.141,-175.410,795.654,0.58,24.83,-202.85
1766236922297,-5.40,-2.37,-116.64,-55.000,-153.926,901.611,-6.36,25.58,-206.73
1766236922307,-7.16,-0.97,-126.63,-38.398,-152.949,726.807,-10.61,28.70,-198.85
1766236922317,-9.00,2.68,-135.73,-209.785,-159.785,793.701,-15.30,34.52,-179.23
1766236922327,-10.22,4.34,-143.68,-121.406,-126.094,890.381,-18.86,39.89,-156.85
1766236922337,-10.89,3.72,-150.75,34.355,-121.211,946.045,-16.67,42.83,-140.10
1766236922347,-12.78,4.02,-157.16,-16.426,-219.844,878.174,-15.48,46.58,-123.98
1766236922357,-13.80,2.29,-162.87,134.453,-182.246,840.576,-16.99,48.96,-110.10
1766236922367,-12.88,-4.27,-168.48,548.027,-66.035,812.256,-17.36,40.77,-108.73
1766236922377,-11.69,-11.47,-174.13,671.562,-60.176,742.920,-18.86,29.95,-107.92
1766236922387,-9.59,-18.69,179.81,714.043,-30.391,695.557,-17.74,13.33,-112.92
1766236922398,-7.01,-25.61,173.32,794.121,-25.996,701.416,-18.67,-2.11,-117.23
1766236922407,-5.07,-28.63,167.37,512.871,-75.312,719.971,-20.05,-9.23,-110.17
1766236922417,-2.33,-30.31,161.34,451.348,-15.742,772.217,-18.42,-22.36,-104.23
1766236922427,0.51,-32.18,155.63,526.543,30.645,839.111,-17.36,-30.86,-94.35
1766236922437,2.81,-31.15,150.79,332.695,65.801,879.639,-18.61,-33.29,-78.10
1766236922447,4.22,-29.94,146.95,307.305,80.449,928.467,-19.36,-36.79,-63.23
1766236922457,6.39,-29.50,143.27,366.387,194.707,945.068,-19.74,-36.79,-49.23
1766236922467,8.78,-30.68,139.67,511.895,244.023,980.713,-13.80,-43.36,-45.48
1766236922477,9.97,-29.92,136.96,326.836,187.871,939.697,-12.92,-44.17,-37.42
1766236922487,12.29,-28.83,133.98,339.531,352.422,1055.420,-13.23,-41.67,-30.23
1766236922497,14.70,-28.49,131.26,401.055,390.508,1082.275,-4.55,-43.54,-26.42
1766236922507,16.67,-26.30,128.88,218.926,384.648,1112.549,1.64,-43.17,-26.23
1766236922517,17.76,-22.96,127.50,81.230,343.633,1056.396,5.70,-34.48,-15.73
1766236922527,17.94,-17.19,127.40,-214.180,351.934,1135.986,5.39,-22.05,1.27
1766236922537,19.03,-14.28,127.76,-16.914,444.707,1148.682,11.27,-15.05,15.59
1766236922547,20.43,-11.99,128.82,-9.102,508.184,1163.818,14.52,-7.86,29.58
1766236922557,21.88,-10.83,130.26,49.492,483.770,1106.689,22.26,-6.17,36.08
1766236922567,21.52,-9.91,132.56,49.980,318.730,1075.928,25.14,-1.04,45.77
1766236922577,21.57,-9.91,135.15,117.852,317.266,1004.150,27.89,3.64,51.96
1766236922587,22.54,-10.19,138.00,144.219,424.688,1066.162,29.89,5.20,60.40
1766236922597,23.27,-10.84,141.36,162.773,404.668,1007.080,30.76,7.33,70.40
1766236922607,23.84,-13.72,145.17,381.035,420.293,995.850,30.20,11.14,78.33
1766236922617,23.40,-16.95,149.22,460.137,355.352,985.107,29.33,9.77,78.65
1766236922627,23.25,-23.33,152.51,842.461,324.590,841.064,27.83,4.83,63.15
1766236922637,21.91,-28.37,155.50,827.324,234.746,833.252,22.08,1.64,46.77
1766236922647,21.50,-33.70,157.05,987.969,223.027,760.498,22.08,-4.55,21.65
1766236922657,21.71,-38.36,157.10,1134.941,181.523,810.303,24.89,-13.48,-8.54
1766236922667,18.94,-39.10,158.64,704.277,-5.488,851.807,20.89,-10.73,-19.85
1766236922677,13.59,-37.26,161.57,497.734,-171.504,890.869,14.27,-0.67,-23.54
1766236922687,8.71,-35.71,163.82,552.422,-225.215,896.240,8.70,9.89,-27.23
1766236922697,6.07,-35.86,164.31,747.246,-174.922,865.479,5.83,18.08,-34.85
1766236922707,4.71,-37.59,163.55,941.582,-151.484,826.904,1.26,18.14,-43.98
1766236922717,3.06,-39.70,162.77,1088.555,-226.191,904.541,-2.42,9.58,-47.42
1766236922727,0.77,-41.17,162.69,935.234,-295.039,930.908,1.26,-7.92,-43.60
1766236922738,-6.77,-43.52,166.52,764.336,-488.887,611.572,-16.24,-15.17,-22.54
1766236922747,-15.52,-43.52,172.13,659.844,-543.574,656.982,-22.05,-15.67,5.46
1766236922758,-22.12,-45.76,176.66,827.324,-456.172,595.459,-25.17,-30.48,11.96
1766236922768,-24.18,-44.50,178.18,628.105,-318.965,872.803,-25.92,-36.17,16.08
1766236922778,-21.62,-37.32,177.02,50.957,-97.773,1082.275,-23.17,-29.98,27.90
1766236922788,-16.45,-27.68,175.85,-486.152,247.441,1500.244,-8.67,-11.80,46.21
1766236922798,-10.18,-19.25,175.48,-451.973,570.684,1441.650,-10.17,2.58,57.15
1766236922807,-3.89,-11.36,176.69,-429.023,625.371,1215.088,-5.61,16.64,68.08
1766236922817,2.17,-7.14,179.02,-135.078,632.695,1192.139,0.83,19.70,71.02
1766236922827,6.50,-3.11,-177.61,-183.906,511.113,1182.373,5.20,26.45,77.83
1766236922837,9.78,-4.19,-174.19,219.414,444.707,1131.592,7.95,22.52,73.46
1766236922847,10.08,-5.57,-170.52,222.344,200.078,1055.420,8.89,18.27,74.71
1766236922857,9.21,-7.79,-167.09,280.449,91.680,1019.775,11.58,8.45,68.52
1766236922867,5.92,-8.76,-163.02,218.438,-107.051,1017.822,8.95,7.45,74.46
1766236922877,1.76,-8.81,-158.76,166.191,-235.957,1001.709,8.70,4.64,75.46
1766236922887,-2.32,-5.25,-154.07,-80.879,-302.852,1053.955,3.76,13.77,88.77
1766236922897,-3.64,-3.78,-149.67,74.395,-137.324,1135.010,-0.30,18.08,91.52
1766236922907,-4.79,-0.32,-145.20,-81.367,-147.090,1135.498,-4.42,29.14,96.52
1766236922917,-6.32,4.67,-140.79,-240.547,-237.422,1127.197,-5.05,39.27,99.27
1766236922927,-5.94,6.67,-136.57,-25.215,-106.074,1149.170,-5.55,47.46,93.96
1766236922937,-5.12,7.98,-132.49,25.566,-58.711,1141.846,-7.11,54.89,89.96
1766236922947,-4.09,9.37,-128.47,-0.801,-26.484,1129.639,-7.92,58.14,86.96
1766236922957,-1.99,8.78,-124.44,149.102,90.703,1142.334,-6.49,58.27,82.52
1766236922967,0.15,7.59,-120.61,185.234,135.625,1125.732,-4.55,54.33,76.71
1766236922977,1.05,8.98,-116.59,-24.727,65.801,1144.287,-7.11,58.64,81.96
1766236922987,2.26,8.70,-112.49,95.391,102.910,1177.979,-5.05,57.46,82.15
1766236922997,2.42,9.77,-108.37,-31.562,11.602,1159.424,-3.36,57.83,84.96
1766236923007,2.68,9.55,-104.12,76.836,20.879,1159.424,-3.49,59.96,87.33
1766236923017,2.54,8.64,-99.85,135.430,-14.277,1135.986,-2.67,57.58,89.27
1766236923027,1.80,9.14,-95.33,38.750,-54.316,1111.572,-7.42,61.52,95.83
1766236923037,1.89,7.03,-91.06,252.617,13.555,1084.229,-6.36,56.58,88.77
1766236923047,0.31,6.55,-86.94,146.172,-101.680,1018.311,-11.30,58.96,88.96
1766236923057,-0.38,2.97,-83.22,445.977,-34.785,1033.936,-12.36,53.71,79.83
1766236923067,-1.68,0.36,-79.99,369.316,-68.965,981.201,-14.67,47.52,69.27
1766236923077,-3.30,-1.33,-76.96,331.230,-84.590,980.225,-20.17,45.77,65.27
1766236923087,-3.90,-3.59,-74.33,407.402,-5.000,1011.963,-23.05,40.02,58.15
1766236923097,-4.73,-5.67,-72.10,395.684,-23.066,987.549,-24.42,33.77,49.71
1766236923107,-5.21,-6.89,-70.22,345.879,11.602,999.268,-28.74,30.64,44.08
1766236923117,-6.12,-6.42,-68.21,213.066,-26.973,982.666,-30.11,29.27,46.83
1766236923127,-5.08,-9.04,-66.58,483.574,145.391,1034.424,-30.36,23.14,44.08
1766236923137,-4.25,-9.77,-64.72,317.559,138.555,987.549,-30.80,20.02,49.21
1766236923147,-2.85,-10.84,-62.79,359.062,216.680,1025.635,-29.92,16.52,53.33
1766236923157,-0.85,-11.95,-60.91,387.871,321.660,1115.479,-27.67,10.89,54.90
1766236923167,1.02,-12.25,-59.02,315.117,346.562,1156.494,-25.36,7.52,54.71
1766236923177,1.40,-10.40,-56.62,117.363,234.258,1213.623,-25.11,9.83,58.65
1766236923187,2.29,-10.53,-54.34,287.285,301.152,1327.393,-21.30,6.20,55.77
1766236923197,2.60,-11.29,-52.28,324.395,206.914,1332.275,-13.17,-0.36,47.65
1766236923207,1.81,-11.85,-50.41,282.402,34.551,1254.150,-4.36,-3.98,37.52
1766236923217,1.65,-14.54,-49.55,466.484,7.695,1194.580,6.83,-13.17,17.02
1766236923227,0.78,-14.96,-49.06,261.406,-100.215,1132.080,12.77,-15.67,2.90
1766236923237,-0.06,-12.70,-49.14,38.750,-131.465,1098.877,14.95,-10.42,-9.60
1766236923247,-0.66,-9.38,-49.95,-69.648,-139.766,1118.896,15.08,-2.42,-22.35
1766236923257,-0.54,-4.85,-51.44,-180.000,-88.008,1036.377,17.08,10.27,-32.10
1766236923267,-0.10,-1.35,-54.11,-136.543,-67.988,1019.287,20.45,17.83,-55.17
1766236923277,-0.65,2.88,-58.08,-241.035,-137.812,1087.646,21.20,27.14,-80.17
1766236923288,-2.89,7.84,-63.70,-334.785,-233.027,1031.494,17.08,40.21,-106.29
1766236923297,-6.32,10.76,-70.93,-201.973,-260.371,952.881,8.83,53.08,-130.85
1766236923307,-9.23,9.99,-79.53,22.637,-208.613,877.686,4.58,59.71,-158.23
1766236923318,-12.33,11.51,-89.21,-151.680,-203.242,821.045,-4.61,64.96,-176.60
1766236923328,-13.75,12.87,-99.19,-180.000,-88.496,855.225,-14.55,71.14,-188.85
1766236923338,-15.88,15.48,-109.67,-285.957,-92.402,847.412,-22.86,81.39,-194.35
1766236923348,-17.30,16.47,-119.79,-178.047,-44.062,801.514,-26.92,91.02,-191.85
1766236923358,-18.10,15.90,-129.01,-62.324,-17.695,848.877,-33.86,98.46,-177.41
1766236923368,-18.25,14.56,-137.33,19.219,-11.348,848.877,-33.61,99.64,-160.73
1766236923378,-17.81,9.58,-144.85,330.254,-16.230,859.619,-28.92,92.27,-144.29
1766236923388,-17.17,3.39,-151.71,519.707,-66.035,844.482,-21.67,80.83,-126.85
1766236923398,-16.26,-2.63,-157.81,594.414,-85.078,814.209,-21.36,71.21,-109.29
1766236923407,-14.12,-9.69,-163.41,804.375,-2.559,766.357,-17.92,56.39,-96.23
1766236923418,-11.04,-17.74,-168.93,984.551,65.801,683.350,-12.48,33.83,-90.73
1766236923427,-6.83,-26.23,-174.96,1145.684,125.859,648.193,-5.67,7.52,-93.54
1766236923437,-2.47,-32.54,178.99,840.996,95.098,623.291,-8.48,-10.86,-88.35
1766236923447,1.86,-37.63,172.85,806.328,88.262,671.631,-7.49,-31.86,-86.85
1766236923457,5.84,-39.89,167.04,621.270,99.980,737.061,-8.86,-44.61,-79.10
1766236923467,7.44,-38.85,163.09,351.250,34.551,764.893,-9.17,-54.73,-67.54
1766236923477,9.10,-37.57,159.38,339.043,98.516,881.104,-9.86,-62.04,-56.54
1766236923487,7.49,-35.83,157.96,234.551,-42.109,842.529,-10.48,-64.79,-45.23
1766236923497,7.84,-33.73,155.94,211.113,99.980,920.654,-12.05,-62.11,-30.35
1766236923507,9.78,-34.09,153.13,405.449,222.051,960.693,-10.05,-64.11,-28.42
1766236923517,11.74,-33.37,150.39,316.582,237.188,947.510,-5.92,-63.42,-27.35
1766236923528,12.27,-29.25,148.55,31.914,221.074,1015.381,-10.73,-55.73,-21.79
1766236923538,13.41,-26.70,146.89,150.078,320.195,1068.604,-9.55,-46.11,-12.35
1766236923547,15.10,-22.68,145.65,-17.891,391.973,1115.479,1.01,-38.54,-4.73
1766236923557,17.77,-21.37,144.29,199.395,496.953,1130.127,10.14,-35.36,-3.73
1766236923567,19.55,-17.89,143.70,-28.633,445.195,1116.455,16.76,-28.61,1.84
1766236923577,21.04,-15.26,143.47,1.152,443.730,1142.822,22.89,-24.30,4.90
1766236923588,22.24,-12.80,143.63,-11.543,409.551,1063.232,25.95,-17.48,9.09
1766236923597,23.50,-10.70,144.38,-13.984,435.918,1049.072,28.26,-9.42,19.96
1766236923607,24.39,-9.79,146.03,51.445,422.734,1076.904,34.01,-3.23,35.83
1766236923618,25.79,-11.87,147.87,321.953,505.742,1138.916,38.33,-3.86,43.02
1766236923627,26.91,-14.44,149.86,367.852,451.543,1056.396,44.01,-7.23,45.65
1766236923637,26.78,-16.21,152.48,308.770,351.934,996.826,43.20,-5.23,52.21
1766236923647,25.41,-16.64,156.06,215.508,282.598,1013.916,40.14,-0.98,64.52
1766236923657,24.32,-21.16,159.48,495.293,224.980,809.814,37.33,-6.55,63.33
1766236923667,20.10,-26.14,164.31,549.492,5.742,740.967,31.45,-9.80,65.71
1766236923677,16.32,-31.66,168.72,757.988,11.113,717.529,18.33,-8.42,55.46
1766236923687,15.06,-37.24,170.37,1060.234,114.629,744.385,10.14,-12.80,20.52
1766236923698,15.63,-39.89,169.66,1078.789,185.918,932.373,11.64,-10.05,-16.35
1766236923708,15.64,-36.35,169.08,556.328,148.809,1168.213,18.89,0.33,-33.04
1766236923718,14.62,-31.38,168.97,349.785,93.145,1146.240,15.70,10.58,-33.60
1766236923727,13.96,-28.03,168.49,375.664,90.703,997.803,15.20,14.33,-33.85
1766236923737,13.06,-26.91,168.13,546.074,78.008,997.314,10.95,20.45,-30.04
1766236923748,13.38,-29.44,166.97,905.449,100.469,931.396,15.08,15.08,-35.98
1766236923758,11.32,-33.44,166.90,994.805,-128.535,816.162,10.45,4.45,-35.92
1766236923768,6.35,-39.08,168.61,1063.164,-402.949,612.061,2.20,-9.61,-32.98
1766236923778,-1.06,-45.38,172.40,1033.379,-594.355,404.541,-2.30,-24.05,-31.04
1766236923788,-9.62,-50.08,177.38,1055.352,-706.660,503.662,-10.98,-37.92,-32.42
1766236923798,-18.44,-50.19,-177.10,609.551,-623.164,605.713,-16.17,-43.36,-29.85
1766236923808,-18.92,-43.98,-177.83,169.609,-303.828,972.412,-23.99,-37.42,-18.67
1766236923818,-13.30,-35.71,178.13,-212.715,162.969,1340.088,-18.74,-24.23,-3.10
1766236923827,-6.51,-27.01,175.19,-418.770,461.309,1350.342,0.01,-11.61,12.21
1766236923838,-0.67,-19.42,174.05,-341.621,618.047,1326.416,-6.24,1.02,30.02
1766236923847,5.56,-14.61,173.81,-122.871,768.438,1355.713,5.76,5.27,32.40
1766236923857,11.00,-11.10,174.45,-63.789,691.289,1199.951,13.58,6.52,35.52
1766236923867,13.63,-8.97,176.18,10.918,488.652,1247.803,15.89,7.39,42.83
1766236923878,14.87,-11.17,178.06,367.363,354.375,1185.791,20.14,-1.04,42.52
1766236923887,12.25,-12.45,-179.19,226.250,4.766,950.439,19.33,-5.98,46.71
1766236923898,7.32,-11.60,-175.56,92.949,-231.074,1076.904,16.95,-6.42,54.08
1766236923907,1.66,-11.35,-171.50,134.941,-392.207,1033.936,17.01,-9.98,60.58
1766236923918,-4.44,-7.19,-166.83,-169.258,-532.832,1004.639,11.64,-2.55,76.58
1766236923928,-8.17,-2.82,-162.64,-191.230,-465.449,1131.104,7.01,9.08,82.15
1766236923938,-10.96,3.55,-158.57,-372.871,-466.426,1145.264,-0.24,29.33,92.27
1766236923948,-11.73,7.62,-154.76,-198.555,-323.359,1142.822,-2.86,40.39,91.46
1766236923957,-12.35,9.64,-151.22,-36.934,-313.105,1109.131,-6.67,50.27,88.52
1766236923968,-13.06,11.57,-147.97,-45.723,-313.594,1084.717,-11.23,55.39,84.33
1766236923978,-12.93,10.21,-144.82,223.809,-225.703,1081.299,-15.55,56.27,78.65
1766236923988,-13.32,9.95,-141.88,133.965,-245.234,1053.467,-18.55,55.33,75.15
1766236923998,-12.87,9.23,-138.85,180.840,-160.762,1101.807,-23.30,54.27,73.52
1766236924008,-12.09,8.21,-135.75,192.559,-117.305,1060.303,-22.36,50.21,73.02
1766236924018,-11.25,8.15,-132.40,127.129,-91.914,1077.881,-24.30,50.33,77.52
1766236924028,-9.57,6.88,-128.83,230.156,-0.605,1148.193,-22.99,46.14,78.65
1766236924037,-8.21,7.19,-125.06,85.625,-0.605,1106.201,-23.24,44.89,82.46
1766236924047,-6.94,8.41,-120.88,3.594,14.043,1130.127,-24.61,47.21,89.96
1766236924058,-4.51,6.77,-116.46,224.785,147.832,1138.916,-22.42,42.89,90.65
1766236924068,-2.15,4.43,-112.20,276.055,189.336,1091.064,-19.67,37.71,87.40
1766236924078,-0.95,3.92,-107.97,128.594,132.207,1083.252,-21.11,36.96,87.77
1766236924087,0.27,1.95,-104.07,248.711,161.016,1036.865,-20.55,34.89,80.96
1766236924097,0.50,0.76,-100.49,194.023,98.516,1000.732,-20.55,33.21,74.77
1766236924107,0.68,0.25,-96.97,156.914,121.953,1004.639,-25.24,32.77,73.65
1766236924117,0.70,-1.15,-93.73,224.785,119.023,983.643,-26.11,29.77,68.21
1766236924127,0.46,-3.27,-90.98,287.285,103.398,979.248,-25.74,23.45,58.27
1766236924137,-0.52,-3.26,-88.26,155.938,62.383,984.131,-31.74,25.77,57.71
1766236924147,-1.61,-2.17,-85.42,90.996,59.941,1015.381,-37.74,29.83,61.33
1766236924158,-1.50,-3.43,-82.74,278.496,162.480,1069.092,-39.24,27.08,58.90
1766236924168,-1.38,-6.42,-80.37,424.492,157.598,1013.428,-35.80,20.58,53.58
1766236924178,-0.61,-8.63,-78.63,379.082,223.027,1059.814,-34.24,11.20,43.52
1766236924187,-0.58,-8.97,-76.90,248.711,175.664,1115.479,-35.24,9.77,42.21
1766236924198,-0.69,-8.85,-74.93,222.832,172.734,1135.498,-35.86,11.52,47.21
1766236924208,-0.84,-8.45,-72.73,200.371,180.059,1204.834,-36.30,10.14,51.96
1766236924218,-0.89,-8.66,-70.60,243.828,158.574,1197.021,-30.67,8.52,49.65
1766236924227,-2.01,-7.01,-68.29,82.695,37.969,1214.111,-29.05,11.70,50.40
1766236924238,-2.69,-6.71,-66.36,191.582,25.762,1244.385,-23.55,12.33,42.52
1766236924248,-3.01,-6.34,-64.90,182.305,17.461,1254.150,-18.67,13.14,32.65
1766236924258,-2.33,-6.80,-64.19,270.195,82.402,1302.002,-13.05,13.58,18.90
1766236924267,-1.54,-8.59,-64.37,401.055,53.594,1264.404,-4.36,10.77,-0.42
1766236924278,-2.02,-7.35,-64.94,138.359,-81.660,1186.279,-0.92,17.39,-12.54
1766236924288,-3.05,-4.52,-65.89,13.359,-144.648,1126.221,0.14,30.02,-20.23
1766236924298,-2.98,-4.65,-67.63,246.758,-71.406,1112.061,1.26,34.77,-34.10
1766236924308,-4.39,-2.65,-69.69,49.980,-193.965,1035.400,2.51,35.71,-42.35
1766236924318,-3.19,-5.65,-72.89,429.375,-13.789,1041.260,4.39,28.77,-61.17
1766236924327,-1.35,-9.28,-77.18,540.703,21.367,1113.037,8.58,17.08,-81.54
1766236924338,0.09,-11.31,-82.44,392.754,-32.344,1020.752,11.95,11.27,-104.23
1766236924347,0.87,-9.52,-88.27,108.086,-56.758,959.229,9.77,14.27,-119.35
1766236924357,2.49,-9.64,-95.23,215.996,16.973,867.920,8.02,13.20,-138.35
1766236924367,3.25,-7.98,-102.90,106.621,8.672,784.912,0.08,18.20,-154.91
1766236924377,3.92,-6.04,-111.28,86.602,32.598,770.752,-3.36,22.45,-169.41
1766236924388,3.76,-2.32,-120.03,-30.586,24.785,740.967,-6.55,27.89,-177.60
1766236924398,5.29,1.00,-128.97,-32.539,182.988,855.713,-9.23,33.64,-181.41
1766236924408,5.33,3.60,-137.43,-11.055,143.926,916.260,-8.73,39.14,-175.73
1766236924418,5.55,2.41,-145.82,252.129,142.461,941.162,-1.05,39.71,-175.85
1766236924427,5.19,0.25,-153.64,340.508,49.199,924.072,7.14,39.14,-164.04
1766236924438,4.06,-2.40,-160.30,366.387,-66.035,847.412,14.27,37.64,-141.16
1766236924448,4.12,-7.29,-166.01,596.855,-52.363,811.768,19.26,33.08,-120.85
1766236924458,5.80,-13.81,-171.16,899.590,21.367,783.936,22.64,24.58,-105.23
1766236924468,7.00,-20.24,-175.55,904.961,-32.344,712.646,20.83,12.95,-92.79
1766236924478,7.65,-26.92,-179.33,839.531,-66.523,577.393,14.02,-2.61,-83.23
1766236924488,10.24,-33.38,176.17,984.551,51.641,631.592,13.08,-20.55,-79.79
1766236924498,12.23,-36.84,172.36,679.375,51.152,677.002,11.14,-35.29,-69.17
1766236924508,14.33,-38.80,168.71,623.223,112.676,764.893,7.89,-47.42,-58.85
1766236924518,16.06,-39.60,165.45,500.664,129.766,779.053,7.51,-61.36,-50.48
1766236924528,15.95,-39.37,163.75,393.730,95.586,787.354,3.45,-64.67,-34.29
1766236924538,17.23,-39.24,161.37,442.070,226.445,885.986,0.45,-68.36,-24.85
1766236924548,19.08,-39.38,158.78,475.273,303.594,922.607,1.39,-71.98,-18.92
1766236924558,20.94,-39.09,156.16,449.395,344.609,958.252,2.20,-74.61,-17.35
1766236924568,23.27,-38.22,153.32,412.773,405.156,989.502,7.39,-74.86,-17.85
1766236924578,25.81,-36.50,150.35,353.691,476.934,1072.510,13.20,-74.98,-20.67
1766236924588,28.24,-34.35,147.47,286.309,487.676,1059.326,20.08,-74.48,-23.23
1766236924598,30.30,-31.40,144.90,187.676,508.184,1097.412,26.70,-71.42,-24.60
1766236924608,31.41,-27.15,143.00,5.059,483.281,1150.635,32.58,-66.23,-24.10
1766236924618,32.61,-24.37,141.54,98.320,500.859,1116.455,41.20,-57.73,-15.60
1766236924628,32.93,-21.25,141.13,-4.219,475.469,1177.490,46.83,-49.48,-2.04
1766236924638,32.65,-18.95,141.70,10.918,434.941,1156.006,49.89,-39.73,15.02
1766236924648,33.43,-20.17,141.89,317.070,469.121,1121.826,58.64,-42.54,15.09
1766236924658,32.91,-19.51,142.85,139.824,333.867,1078.369,63.58,-37.98,17.83
1766236924668,31.30,-19.06,144.59,154.473,237.676,1070.068,62.70,-29.23,23.96
1766236924678,29.64,-19.72,146.66,245.781,202.520,1025.146,61.95,-24.61,28.71
1766236924722,27.13,-20.24,149.54,228.691,123.418,979.736,59.14,-20.42,37.90
1766236924724,23.81,-24.40,152.89,483.086,-5.488,849.365,55.14,-24.48,39.77
1766236924727,18.71,-31.33,157.22,717.461,-217.891,686.279,46.58,-32.42,35.65
1766236924730,13.24,-39.34,161.75,958.672,-335.078,553.955,34.76,-38.04,21.02
1766236924733,8.41,-45.43,165.56,1029.473,-279.414,620.850,19.33,-39.54,5.71
1766236924738,7.58,-48.88,166.12,1065.117,-52.363,850.830,14.58,-46.98,-9.91
1766236924748,9.46,-48.35,164.71,804.375,153.691,1094.482,16.39,-49.54,-12.04
1766236924758,13.08,-45.64,162.55,605.156,318.730,1256.592,29.33,-50.17,-10.10
1766236924768,15.74,-41.54,161.52,365.898,282.598,1197.510,39.89,-44.73,-7.48
1766236924778,17.73,-37.73,161.24,322.441,261.113,1102.295,45.45,-36.04,-3.66
1766236924788,19.38,-36.05,161.29,419.121,238.164,986.084,48.76,-34.86,0.21
1766236924798,19.26,-34.75,162.53,380.059,167.852,944.092,43.76,-34.54,9.96
1766236924808,19.59,-36.16,163.58,647.637,222.051,959.717,39.26,-32.11,15.90
1766236924818,19.34,-36.31,165.04,612.969,215.703,1094.482,39.64,-31.67,16.27
1766236924828,19.41,-38.94,166.38,884.453,161.504,1065.674,48.70,-37.73,13.15
1766236924838,17.70,-39.61,168.71,612.969,51.152,1014.893,44.20,-43.17,12.52
1766236924848,10.30,-40.73,175.16,478.691,-294.062,779.053,39.89,-41.54,24.71
1766236924858,2.22,-40.94,-177.58,423.027,-334.590,726.318,30.26,-42.29,36.02
1766236924868,-3.61,-42.94,-171.81,606.621,-296.504,748.779,21.45,-54.54,34.77
1766236924878,-9.56,-43.57,-165.88,487.969,-295.039,686.279,13.45,-58.73,36.33
1766236924888,-12.22,-44.50,-162.34,532.891,-182.734,718.018,8.33,-62.67,30.83
1766236924898,-12.04,-40.67,-160.86,236.992,-99.238,1004.150,3.95,-61.67,31.02
1766236924908,-9.45,-36.00,-160.76,90.020,73.125,1239.990,2.95,-59.04,33.33
1766236924918,-5.09,-30.98,-161.34,-73.066,240.605,1154.053,7.89,-56.86,33.46
1766236924928,-1.56,-25.50,-160.84,-200.996,289.434,1201.904,8.39,-49.73,44.52
1766236924938,2.12,-20.50,-159.81,-262.031,400.762,1288.818,11.27,-44.04,51.77
1766236924948,5.84,-19.22,-158.50,48.027,457.402,1376.221,19.70,-48.54,52.58
1766236924958,8.34,-17.55,-156.54,-27.168,339.727,1262.451,26.70,-46.98,57.21
1766236924968,9.86,-16.62,-153.97,22.148,265.996,1206.787,30.58,-43.48,63.90
1766236924978,11.36,-19.33,-151.55,326.836,247.930,1145.752,38.08,-50.42,61.96
1766236924988,10.09,-19.30,-148.09,99.785,36.992,1087.158,37.14,-50.36,65.65
1766236924998,8.55,-19.23,-144.31,116.875,-2.559,1114.014,36.89,-46.79,69.15
1766236925008,5.52,-17.08,-139.85,-55.000,-156.855,1074.951,35.89,-42.29,73.21
1766236925018,3.05,-13.35,-135.51,-182.441,-150.020,1098.877,27.64,-31.30,77.02
1766236925028,1.81,-11.60,-131.63,-33.516,-103.633,1066.650,29.08,-27.73,73.15
1766236925038,0.45,-9.59,-127.86,-45.234,-135.371,1049.072,25.95,-19.42,71.27
1766236925048,-1.19,-7.78,-124.24,-41.328,-188.105,1036.377,23.89,-15.61,68.40
1766236925058,-2.90,-5.38,-120.65,-90.156,-203.730,1024.170,16.70,-9.48,70.40
1766236925068,-2.56,-7.37,-117.67,226.738,-61.641,1055.420,16.14,-14.30,61.96
1766236925078,-2.49,-7.42,-114.63,92.949,-56.758,1025.635,12.45,-13.61,62.52
1766236925088,-1.90,-7.18,-111.45,73.418,-1.582,1112.549,10.58,-13.92,67.46
1766236925098,-0.64,-8.25,-108.30,170.586,71.660,1126.709,11.58,-17.17,68.83
1766236925108,-0.64,-7.02,-104.86,-15.938,-18.672,1127.197,11.14,-15.80,71.58
1766236925118,0.15,-7.37,-101.29,111.016,56.035,1145.752,11.45,-14.30,76.71
1766236925128,0.66,-7.30,-97.52,73.418,37.480,1145.264,13.64,-14.55,80.02
1766236925138,0.29,-7.82,-93.40,147.148,-13.789,1150.146,9.58,-10.36,85.77
1766236925147,0.11,-8.63,-89.37,169.609,-6.465,1108.643,11.52,-12.73,84.15
1766236925158,0.01,-9.62,-85.45,207.207,12.578,1116.455,8.77,-12.30,82.21
1766236925167,-0.25,-11.10,-81.77,256.523,0.859,1075.928,8.52,-13.98,76.58
1766236925178,-1.43,-10.28,-78.02,94.414,-62.129,1084.717,2.95,-11.67,75.33
1766236925188,-2.31,-11.11,-74.71,218.438,-54.316,1067.627,0.70,-13.86,67.02
1766236925198,-3.75,-10.43,-71.52,101.738,-98.750,1049.072,-4.74,-14.23,63.02
1766236925208,-4.87,-10.55,-68.56,163.262,-81.172,1038.818,-9.23,-13.98,59.83
1766236925218,-4.83,-13.63,-66.38,376.641,-1.582,996.338,-9.30,-22.86,47.27
1766236925228,-4.72,-16.23,-64.61,364.434,8.184,1006.104,-9.80,-29.36,39.40
1766236925238,-4.56,-17.26,-62.86,271.660,32.109,1042.236,-13.17,-31.98,40.52
1766236925248,-3.94,-18.48,-61.16,304.375,89.727,1073.975,-14.42,-34.98,43.46
1766236925258,-3.02,-20.00,-59.50,359.062,152.227,1148.193,-15.61,-39.29,46.21
1766236925268,-2.87,-19.55,-57.35,206.719,115.117,1180.420,-17.05,-38.04,53.40
1766236925278,-2.89,-17.71,-54.81,80.254,120.000,1278.564,-17.80,-34.86,61.21
1766236925288,-2.08,-18.42,-52.63,315.117,204.473,1375.244,-15.73,-38.73,56.77
1766236925298,-2.44,-17.10,-50.13,108.574,50.176,1300.049,-9.61,-35.36,54.71
1766236925308,-2.29,-18.04,-48.13,314.141,45.293,1249.268,-3.05,-35.11,44.21
1766236925318,-1.67,-19.35,-46.95,342.949,25.762,1214.111,6.64,-38.61,26.90
1766236925328,-1.00,-20.25,-46.43,315.605,3.301,1210.205,10.08,-40.54,11.77
1766236925338,0.12,-21.90,-46.89,392.266,8.184,1167.236,14.33,-42.29,-6.85
1766236925348,0.59,-21.29,-48.07,190.605,-71.895,1098.389,16.64,-41.23,-29.17
1766236925358,0.38,-17.04,-49.91,-120.918,-134.395,1176.025,12.70,-28.61,-45.60
1766236925368,0.53,-13.08,-52.51,-98.945,-95.820,1114.990,11.83,-14.67,-57.60
1766236925378,1.70,-9.29,-56.26,-122.871,-0.605,1185.791,11.39,-5.92,-75.48
1766236925388,3.76,-8.03,-61.84,71.953,64.824,1179.932,18.01,-4.55,-111.17
1766236925398,3.92,-6.46,-69.08,39.238,-79.707,996.826,22.08,-3.23,-150.23
1766236925408,4.20,-2.18,-77.95,-184.883,-38.203,1072.021,18.76,4.27,-179.41
1766236925418,1.58,0.42,-88.04,-82.344,-182.246,894.287,16.58,10.70,-202.54
1766236925428,-1.65,2.47,-98.85,-94.551,-199.824,868.408,8.20,17.58,-212.41
1766236925438,-3.11,2.53,-110.12,-13.008,-107.539,858.643,6.14,18.33,-221.85
1766236925448,-5.88,3.00,-121.27,-58.418,-175.898,741.455,3.08,20.52,-218.66
1766236925459,-9.04,5.34,-131.54,-201.973,-236.934,791.748,-0.11,29.52,-199.10
1766236925469,-11.73,7.01,-140.60,-200.508,-238.398,826.416,-3.42,34.64,-175.10
1766236925478,-14.31,6.40,-148.64,-60.371,-267.695,796.143,-2.49,38.64,-154.73
1766236925488,-17.77,5.17,-155.67,-1.289,-316.035,664.795,-6.55,44.02,-131.85
1766236925498,-18.04,-0.90,-161.67,362.969,-214.473,760.010,-9.30,40.21,-117.04
1766236925508,-16.52,-10.55,-167.72,842.949,-112.910,687.744,-6.36,28.89,-115.79
1766236925526,-14.03,-19.40,-173.89,834.160,-85.078,684.326,-8.23,8.33,-115.54
1766236925528,-10.79,-28.05,179.47,881.523,-51.875,652.588,-12.73,-15.11,-119.98
1766236925538,-6.25,-35.61,171.87,957.207,16.484,709.717,-17.80,-34.11,-121.85
1766236925548,-2.59,-38.45,164.88,556.816,-46.504,743.896,-20.11,-47.73,-115.04
1766236925558,0.82,-37.69,158.32,340.996,0.859,852.295,-22.42,-57.92,-104.48
1766236925568,4.65,-37.50,151.77,406.914,97.051,923.584,-20.67,-64.61,-95.17
1766236925578,6.25,-34.85,147.07,202.324,77.520,952.881,-24.67,-64.11,-75.54
1766236925588,8.38,-32.37,142.40,171.074,168.340,960.205,-23.05,-66.54,-66.79
1766236925598,9.86,-30.85,138.34,248.711,199.590,1044.189,-22.74,-63.92,-58.67
1766236925608,11.39,-30.25,134.16,312.676,223.027,1019.287,-21.67,-63.36,-60.35
1766236925618,11.36,-26.32,131.22,36.309,160.527,928.955,-23.99,-50.48,-49.98
1766236925628,12.04,-23.26,128.36,90.996,263.066,1061.279,-21.05,-40.98,-43.23
1766236925638,13.43,-21.76,125.44,208.672,334.355,1082.764,-14.92,-36.29,-41.54
1766236925648,14.19,-17.50,123.42,-50.605,318.242,1071.045,-11.11,-26.48,-31.35
1766236925658,15.48,-16.09,121.79,170.586,410.039,1133.057,-6.67,-19.05,-21.54
1766236925668,16.77,-13.33,120.76,18.242,412.969,1119.385,1.26,-14.61,-12.79
1766236925678,17.94,-12.87,120.50,186.699,403.203,1101.807,9.02,-9.98,0.71
1766236925688,18.98,-11.47,121.26,87.090,401.250,1049.072,12.14,-2.61,19.58
1766236925698,20.40,-11.00,122.74,147.148,478.398,1085.693,14.52,2.27,35.27
1766236925708,21.97,-13.15,124.47,353.203,481.816,1033.936,20.83,-1.42,41.96
1766236925718,22.84,-14.84,126.66,289.238,394.414,923.096,24.08,-3.17,49.90
1766236925728,22.02,-15.25,129.85,166.191,271.855,805.420,18.39,-1.29,64.02
1766236925738,20.80,-16.89,133.97,262.383,286.992,820.068,10.02,2.70,82.71
1766236925748,19.67,-19.84,138.54,420.098,337.285,827.393,1.45,7.70,92.77
1766236925758,19.20,-25.34,142.71,814.141,436.895,853.760,-0.49,5.33,89.15
1766236925768,19.76,-31.39,145.59,1103.691,533.086,835.693,4.45,-1.17,72.58
1766236925778,21.25,-36.33,146.69,1204.277,577.520,860.596,9.39,-6.98,45.08
1766236925788,25.26,-40.78,144.55,1443.535,638.066,875.732,24.76,-20.73,-2.66
1766236925798,28.20,-42.91,142.09,1003.105,336.797,802.490,33.08,-26.86,-34.35
1766236925808,26.55,-40.87,142.56,572.441,120.488,901.611,28.51,-18.36,-41.35
1766236925818,24.22,-38.74,143.25,536.309,30.156,919.189,31.39,-13.73,-48.54
1766236925828,21.94,-37.05,143.87,587.090,0.859,958.740,30.64,-6.23,-47.92
1766236925838,19.39,-34.89,144.91,564.141,-13.301,1033.447,29.51,2.52,-38.54
1766236925848,18.65,-36.24,144.87,778.496,45.293,794.189,26.14,6.70,-34.79
1766236925858,18.19,-39.05,144.63,1010.430,-0.117,819.580,29.33,-1.29,-37.04
1766236925868,16.22,-43.08,145.37,1044.609,-145.137,708.740,25.26,-13.48,-34.54
1766236925878,10.52,-48.85,149.07,957.207,-405.879,451.416,21.83,-27.80,-29.54
1766236925888,0.42,-52.40,156.44,809.258,-561.641,514.893,6.58,-39.42,-19.17
1766236925899,-8.08,-51.94,162.58,619.805,-448.848,683.350,-6.42,-40.36,-12.79
1766236925914,-9.13,-45.85,163.23,247.734,-148.066,975.342,-9.73,-34.42,2.52
1766236925920,-7.03,-37.78,162.87,-47.188,121.953,1280.518,-7.05,-26.61,33.02
1766236925928,-3.77,-29.72,163.55,-200.508,313.359,1287.354,3.01,-18.61,59.21
1766236925939,-0.33,-23.47,165.75,-141.426,392.461,1381.104,15.64,-16.05,77.96
1766236925948,2.52,-18.40,169.46,-106.270,349.492,1252.686,21.26,-9.92,96.71
1766236925958,5.43,-16.06,173.91,44.121,327.520,1112.549,28.83,-11.67,106.96
1766236925968,7.17,-17.29,178.72,250.176,229.863,1027.588,35.14,-23.92,107.83
1766236925979,6.26,-19.57,-176.05,333.672,50.664,1045.654,33.89,-34.11,103.02
1766236925988,4.16,-22.78,-170.50,487.969,-56.758,1101.318,33.70,-39.54,99.21
1766236925999,0.05,-21.27,-163.93,138.848,-241.328,1176.514,29.64,-37.11,104.58
1766236926009,-3.70,-20.57,-157.55,228.691,-281.367,1120.361,26.64,-34.54,103.21
1766236926019,-6.02,-17.36,-151.60,39.238,-216.914,1098.389,23.33,-25.73,106.96
1766236926029,-5.80,-12.96,-146.44,-95.039,-47.969,1112.549,18.01,-16.92,109.21
1766236926039,-4.91,-9.32,-141.36,-71.113,-0.605,1135.498,14.83,-6.92,111.08
1766236926048,-3.67,-5.22,-136.17,-139.961,22.344,1129.639,14.08,5.27,114.27
1766236926058,-2.22,-0.32,-131.01,-267.402,27.227,1117.920,14.45,14.83,112.77
1766236926068,-0.17,1.49,-125.93,-69.648,77.031,1128.662,15.70,19.45,108.40
1766236926078,2.30,0.31,-121.22,166.191,163.945,1182.861,15.83,20.52,99.96
1766236926089,3.39,0.61,-116.60,32.402,76.055,1086.182,15.20,20.77,97.15
1766236926098,4.88,-0.89,-112.22,177.910,147.344,1119.385,14.08,18.77,92.40
1766236926108,5.58,-1.44,-107.86,107.598,110.723,1132.568,14.02,17.45,91.33
1766236926118,6.30,-3.43,-103.84,217.949,130.742,1107.666,14.20,10.58,85.08
1766236926128,5.32,-1.30,-99.43,-99.922,2.812,1098.389,10.39,14.89,91.52
1766236926138,5.79,-2.88,-95.22,186.211,122.441,1168.701,10.64,10.27,88.96
1766236926148,4.89,-1.37,-90.69,-67.695,-1.094,1151.611,10.27,12.33,94.52
1766236926158,4.69,-2.58,-86.33,163.262,48.711,1276.611,11.14,8.95,91.58
1766236926168,3.09,-1.98,-82.00,0.176,-86.055,1085.693,10.45,7.39,89.96
1766236926178,1.42,-1.12,-77.69,-7.637,-99.238,1031.982,4.76,10.83,89.83
1766236926188,0.02,-2.49,-73.81,154.473,-101.191,1002.197,4.26,6.89,81.08
1766236926198,-2.26,-2.37,-70.16,68.535,-165.645,953.369,-1.61,8.58,75.40
1766236926208,-4.33,-1.24,-66.60,15.801,-168.574,976.318,-8.42,13.14,74.96
1766236926218,-5.56,-0.73,-63.25,69.512,-115.840,1009.521,-15.05,16.83,72.08
1766236926228,-5.69,-1.93,-61.01,201.348,-39.180,1007.080,-16.55,17.52,48.90
1766236926238,-5.41,-2.16,-58.39,159.355,9.648,1107.666,-19.49,17.64,57.96
1766236926248,-5.29,-1.72,-55.84,122.734,10.625,1058.350,-22.49,24.02,56.77
1766236926258,-4.19,-1.80,-53.40,161.797,93.633,1075.439,-20.55,24.20,55.15
1766236926268,-2.41,-2.85,-51.04,262.383,184.941,1154.053,-18.11,23.02,53.65
1766236926278,-0.81,-3.31,-48.63,233.086,219.121,1216.064,-18.49,23.77,54.33
1766236926288,0.21,-3.78,-46.18,243.340,193.730,1241.943,-17.55,23.95,54.02
1766236926298,1.09,-4.69,-44.05,286.309,185.918,1211.182,-15.23,23.33,46.96
1766236926308,0.54,-3.36,-42.06,94.414,37.480,1175.049,-11.86,27.83,41.40
1766236926318,0.57,-3.58,-40.51,224.297,66.289,1190.186,-9.11,28.39,32.71
1766236926328,1.52,-7.15,-39.89,538.262,126.836,1167.725,-1.80,18.27,15.59
1766236926338,1.93,-9.97,-39.79,469.414,55.059,1165.283,3.95,6.83,3.02
1766236926348,1.90,-11.64,-40.16,390.801,-5.000,1176.514,7.08,2.52,-8.98
1766236926390,0.85,-10.21,-40.65,143.242,-104.609,1181.396,6.58,8.08,-16.10
1766236926392,-0.70,-6.49,-41.73,-42.793,-166.133,1132.080,5.08,22.70,-27.73
1766236926395,-1.95,-0.95,-43.79,-192.695,-140.742,1134.521,-0.49,44.89,-41.67
1766236926398,-2.76,4.79,-47.03,-260.566,-96.797,1189.209,-2.55,62.77,-61.54
1766236926401,-1.91,7.26,-51.65,-21.797,79.473,1280.518,-1.30,72.83,-92.79
1766236926408,-0.56,7.92,-57.93,126.641,148.809,1154.541,2.51,77.27,-128.79
1766236926418,0.50,9.14,-65.69,67.559,160.527,1032.471,1.76,78.08,-159.73
1766236926428,1.30,9.68,-74.78,85.625,156.133,981.201,6.64,71.21,-186.16
1766236926438,0.46,9.58,-85.15,89.043,56.523,870.850,6.51,63.71,-206.79
1766236926448,-3.89,10.49,-96.80,-16.426,-141.719,802.002,2.51,62.96,-218.23
1766236926458,-6.00,9.96,-108.64,11.895,-53.828,786.377,0.08,60.08,-227.48
1766236926468,-11.47,12.78,-120.50,-255.684,-298.945,814.209,-0.30,65.21,-210.16
1766236926478,-16.30,13.92,-130.98,-209.785,-375.605,901.611,0.45,75.77,-180.66
1766236926488,-20.66,9.23,-140.22,219.902,-463.496,807.861,7.89,76.83,-155.91
1766236926498,-23.20,2.99,-148.20,416.191,-459.590,782.959,5.39,73.71,-139.54
1766236926508,-24.83,-3.72,-155.05,564.629,-440.547,729.736,-4.49,71.27,-121.42
1766236926519,-24.90,-12.49,-161.30,854.668,-351.680,661.865,-10.36,53.02,-114.35
1766236926529,-23.26,-21.66,-167.54,962.090,-221.797,609.619,-16.42,32.58,-112.48
1766236926539,-21.70,-27.96,-173.23,638.848,-236.445,579.346,-20.92,13.39,-106.92
1766236926549,-18.13,-34.78,-179.64,803.398,-126.094,626.709,-21.17,-7.30,-105.54
1766236926558,-14.83,-36.83,174.48,464.531,-133.418,664.307,-24.49,-19.55,-94.98
1766236926568,-9.20,-40.07,167.19,653.008,38.945,770.752,-25.05,-34.23,-91.48
1766236926578,-3.75,-41.32,160.28,543.145,82.891,817.139,-22.99,-46.92,-80.98
1766236926588,1.69,-42.57,153.36,594.414,155.156,877.197,-21.55,-59.23,-77.04
1766236926598,5.75,-41.40,147.53,447.930,165.898,1000.732,-20.05,-64.11,-68.48
1766236926608,9.67,-40.87,141.91,487.969,217.656,996.338,-15.30,-69.92,-64.98
1766236926618,11.70,-37.38,137.93,227.227,208.379,1065.674,-14.61,-64.48,-52.48
1766236926628,14.15,-35.10,133.81,301.934,306.035,1135.498,-11.42,-66.92,-49.67
1766236926638,15.17,-31.49,131.10,127.129,252.324,1094.482,-5.49,-60.67,-38.29
1766236926648,16.18,-27.53,129.00,50.957,335.820,1208.252,-1.74,-52.92,-26.35
1766236926658,17.55,-25.30,127.23,160.332,369.512,1202.393,8.89,-50.98,-18.79
1766236926668,18.29,-21.57,126.14,-26.191,314.824,1174.561,17.01,-44.42,-14.54
1766236926678,17.51,-17.39,126.22,-125.801,210.820,1151.611,17.33,-34.42,-1.35
1766236926688,17.54,-11.80,127.02,-329.902,306.035,1163.330,16.58,-18.98,16.65
1766236926698,18.91,-9.15,128.03,-115.547,418.828,1176.514,23.39,-12.92,26.21
1766236926708,20.25,-7.83,129.54,-13.984,412.480,1039.795,20.51,-4.80,35.77
1766236926718,21.64,-7.38,131.30,41.191,422.246,1011.963,23.14,-1.42,40.46
1766236926728,23.00,-7.95,133.35,123.223,457.891,1014.404,22.14,1.33,46.21
1766236926738,22.71,-8.36,135.81,124.199,375.859,1073.486,18.08,3.58,50.65
1766236926748,22.36,-9.83,138.62,217.461,346.074,981.689,16.51,6.95,56.65
1766236926758,21.59,-12.23,141.83,303.398,311.406,880.615,9.27,10.58,62.90
1766236926768,20.62,-17.86,145.01,645.195,300.176,829.834,3.45,8.70,60.40
1766236926778,20.27,-22.92,147.05,838.066,402.715,925.537,-1.61,4.45,42.15
1766236926788,20.78,-27.03,147.76,946.953,452.520,952.881,1.26,4.58,19.02
1766236926798,21.96,-30.35,147.18,1018.730,439.824,952.881,7.70,3.89,-6.60
1766236926808,22.20,-31.89,146.31,794.609,258.184,883.545,12.33,3.70,-29.04
1766236926818,20.48,-31.43,146.48,663.750,116.094,981.689,14.70,10.20,-33.79
1766236926828,18.24,-30.51,146.62,675.469,44.316,1108.154,13.45,10.89,-39.67
1766236926838,16.73,-30.53,145.92,743.828,19.414,1068.604,14.95,8.39,-49.79
1766236926848,16.61,-31.25,144.25,835.625,89.727,1000.244,13.89,12.33,-56.23
1766236926858,16.33,-31.00,142.78,749.688,106.816,979.736,9.77,18.95,-53.35
1766236926868,16.08,-33.36,141.36,990.410,59.453,909.424,11.52,11.14,-50.48
1766236926878,14.32,-37.50,141.30,1097.832,-143.672,827.393,19.51,-6.23,-41.23
1766236926888,6.27,-43.53,145.75,979.180,-561.641,456.787,2.14,-17.80,-25.04
1766236926898,-4.61,-47.90,153.14,922.051,-686.152,464.600,-6.24,-26.05,-8.73
1766236926909,-13.33,-50.92,159.28,941.094,-558.223,589.111,-14.86,-40.29,-5.48
1766236926918,-16.74,-46.87,161.36,428.887,-317.988,928.955,-23.49,-37.98,3.84
1766236926929,-12.40,-40.17,158.39,125.664,131.230,1179.443,-21.49,-24.98,16.21
1766236926939,-6.86,-31.76,156.10,-236.641,462.285,1323.975,-16.17,-12.17,35.58
1766236926948,-1.38,-24.52,155.85,-208.320,579.473,1272.217,-3.11,-6.05,55.58
1766236926958,3.68,-18.89,157.12,-151.191,579.473,1245.850,10.33,-4.98,64.71
1766236926968,6.38,-13.23,160.38,-206.367,383.184,1141.357,12.20,4.52,81.90
1766236926978,8.21,-12.16,164.54,115.410,321.172,1109.619,14.45,2.45,93.90
1766236926988,9.18,-16.28,168.82,545.586,272.344,1106.201,19.83,-10.98,93.77
1766236926998,7.15,-18.58,173.98,378.594,21.855,1056.396,22.58,-19.98,96.21
1766236927009,2.97,-19.02,-179.91,263.359,-185.664,1085.693,23.51,-24.42,100.77
1766236927019,-1.45,-19.51,-173.44,324.395,-283.320,1083.740,23.26,-22.67,103.65
1766236927029,-4.30,-18.11,-167.25,203.301,-201.777,1063.721,20.70,-17.61,109.15
1766236927039,-4.62,-18.37,-162.11,313.164,-35.762,1069.580,17.39,-21.48,104.02
1766236927050,-4.54,-16.22,-157.21,132.012,-5.000,1110.596,14.02,-14.67,103.71
1766236927059,-4.58,-11.17,-152.33,-149.238,-38.691,1135.498,12.52,-6.98,103.71
1766236927068,-2.84,-8.74,-147.99,8.965,97.539,1167.236,11.58,-1.79,97.77
1766236927078,-1.16,-5.92,-143.77,-50.117,109.258,1161.377,10.83,6.89,93.77
1766236927088,0.75,-4.42,-139.69,8.477,133.672,1144.775,13.58,7.64,89.27
1766236927098,3.14,-5.12,-136.01,177.422,208.867,1155.518,15.70,8.33,80.96
1766236927108,4.57,-4.95,-132.33,100.762,162.969,1120.850,14.58,9.45,79.15
1766236927119,5.39,-4.84,-128.57,100.762,143.438,1120.361,12.39,10.39,79.52
1766236927128,5.95,-5.51,-124.94,144.707,123.418,1092.041,14.33,5.70,76.46
1766236927138,5.56,-4.65,-120.94,23.613,58.965,1112.061,12.33,6.95,82.77
1766236927148,5.25,-5.73,-116.85,175.469,70.195,1145.264,10.52,3.58,85.52
1766236927158,4.49,-6.61,-112.56,163.262,28.691,1112.549,10.27,0.83,88.77
1766236927168,4.16,-8.03,-108.25,225.273,64.824,1131.104,10.20,-2.05,90.46
1766236927178,2.94,-8.22,-103.69,129.570,-13.789,1077.393,9.20,-3.61,93.21
1766236927188,2.27,-10.05,-99.28,279.473,25.273,1077.881,7.58,-5.80,91.71
1766236927198,0.42,-9.81,-94.58,121.758,-72.871,1032.471,5.26,-7.92,93.96
1766236927208,-0.88,-10.99,-90.12,235.039,-38.203,1007.568,0.45,-10.30,90.96
1766236927218,-3.00,-11.58,-85.64,188.164,-109.004,965.088,-2.92,-15.30,88.15
1766236927228,-5.00,-11.24,-81.18,138.848,-116.328,983.154,-7.80,-15.36,88.96
1766236927238,-5.96,-13.06,-77.16,301.445,-57.246,1001.709,-9.98,-21.42,82.83
1766236927249,-7.60,-12.84,-73.10,167.168,-102.168,1006.592,-16.42,-21.73,82.15
1766236927258,-7.84,-13.90,-69.53,273.613,-3.047,1044.189,-18.99,-24.23,77.77
1766236927268,-6.93,-16.39,-66.76,390.801,92.168,1039.795,-17.61,-30.17,66.71
1766236927278,-6.22,-17.06,-64.35,259.453,74.102,1040.771,-16.05,-31.05,58.77
1766236927288,-5.40,-16.04,-62.19,132.988,94.609,1080.322,-17.30,-28.67,55.27
1766236927298,-3.51,-17.26,-60.68,331.230,210.332,1172.607,-14.92,-29.67,46.90
1766236927309,-1.91,-17.80,-59.25,317.559,235.234,1293.213,-14.23,-28.42,45.08
1766236927319,-0.81,-18.53,-57.68,356.621,204.961,1319.580,-10.67,-28.55,44.77
1766236927328,-0.08,-18.88,-56.16,331.719,169.316,1325.928,-7.67,-27.80,40.83
1766236927338,-0.06,-19.27,-54.78,319.023,54.082,1210.205,-0.86,-26.92,30.90
1766236927348,-0.75,-18.65,-53.52,222.344,-27.461,1120.850,-0.42,-23.48,22.90
1766236927358,-0.86,-17.82,-53.38,201.348,-27.949,1092.529,1.70,-19.86,1.52
1766236927368,0.53,-20.03,-54.34,427.910,52.617,1036.377,7.45,-25.48,-13.16
1766236927378,1.38,-21.11,-55.27,334.160,7.695,1007.568,11.14,-30.55,-17.60
1766236927388,1.89,-18.68,-56.82,81.719,-18.672,1091.553,9.58,-25.05,-33.17
1766236927399,1.78,-13.79,-58.81,-147.773,-60.664,1114.014,7.39,-13.11,-44.17
1766236927408,2.63,-10.52,-61.91,-52.559,24.785,1218.018,6.76,-6.36,-62.29
1766236927418,3.88,-8.03,-65.96,-3.730,77.520,1274.170,8.39,-0.11,-81.10
1766236927428,5.50,-5.52,-71.24,-15.938,112.188,1197.998,13.39,4.45,-106.23
1766236927438,8.08,-4.45,-78.39,85.625,168.828,1090.088,23.89,1.08,-142.91
1766236927448,8.68,-0.76,-86.80,-109.199,53.594,964.600,26.08,3.14,-171.60
1766236927458,6.49,4.54,-96.37,-262.031,-77.754,892.822,22.58,9.58,-190.41
1766236927468,1.59,8.29,-107.11,-234.199,-208.613,827.393,16.95,16.02,-202.23
1766236927479,-5.13,10.58,-118.74,-231.758,-322.383,753.662,10.83,22.33,-207.79
1766236927489,-12.31,10.60,-130.05,-190.742,-470.820,795.166,8.52,29.33,-197.79
1766236927499,-19.12,11.77,-140.14,-350.898,-600.215,821.045,1.01,40.02,-173.85
1766236927509,-23.37,8.88,-148.59,-34.980,-496.211,822.998,-2.42,45.96,-153.54
1766236927519,-26.03,2.77,-155.88,249.688,-437.129,726.807,-6.30,48.02,-137.73
1766236927529,-26.95,-5.61,-162.43,512.871,-383.906,690.186,-10.61,39.77,-129.73
1766236927539,-26.32,-13.50,-168.55,581.719,-330.195,698.975,-14.48,27.14,-123.10
1766236927549,-23.24,-22.03,-175.09,746.758,-179.805,730.713,-16.49,5.14,-124.35
1766236927559,-18.85,-30.49,177.60,808.770,-87.520,678.467,-19.05,-15.67,-128.79
1766236927569,-13.44,-35.38,169.51,636.406,-65.059,759.521,-20.36,-28.80,-128.73
1766236927579,-9.86,-34.40,162.73,271.172,-130.488,818.115,-22.11,-34.67,-117.35
1766236927589,-8.61,-33.10,157.98,250.176,-185.176,892.822,-22.99,-42.29,-96.35
1766236927598,-4.70,-32.70,151.39,311.699,5.742,925.537,-25.05,-45.54,-103.67
1766236927609,-2.50,-31.08,146.02,231.133,-13.301,932.861,-27.99,-44.54,-91.23
1766236927618,-0.99,-27.97,141.35,93.438,16.484,936.279,-30.24,-43.86,-80.67
1766236927628,1.12,-28.41,136.66,364.434,119.023,955.322,-32.49,-41.73,-71.79
1766236927638,3.37,-27.64,132.00,275.566,157.109,953.369,-29.86,-42.54,-69.23
1766236927649,5.11,-25.56,127.71,202.324,211.797,1076.904,-34.24,-37.61,-63.79
1766236927659,7.50,-24.60,123.15,277.031,283.574,1065.186,-28.49,-38.42,-66.10
1766236927669,8.70,-20.04,119.71,-34.980,251.348,1086.670,-24.67,-28.17,-56.10
1766236927679,10.34,-17.26,116.57,87.090,340.215,1156.494,-18.55,-21.30,-49.54
1766236927689,12.28,-15.06,113.86,100.273,363.164,1076.904,-10.11,-17.48,-42.73
1766236927699,12.94,-11.41,112.24,-59.395,309.941,1136.475,-6.55,-10.23,-29.67
1766236927708,13.83,-9.16,111.26,15.312,349.492,1144.287,-2.61,-5.11,-16.67
1766236927718,15.26,-8.02,110.88,79.277,382.207,1063.721,2.76,-0.29,-4.23
1766236927728,16.11,-6.39,111.44,13.848,349.492,1076.904,7.26,4.39,12.02
1766236927738,16.63,-3.71,113.00,-100.410,334.355,1045.166,6.51,12.83,29.58
1766236927748,17.48,-3.34,115.33,54.863,381.230,1067.139,7.08,17.77,45.52
1766236927758,17.94,-4.96,118.08,200.859,347.051,1016.846,7.64,16.33,54.46
1766236927768,17.87,-6.57,121.30,199.883,296.270,910.889,5.01,17.39,63.40
1766236927778,17.44,-9.27,124.65,311.699,286.504,879.150,0.20,17.83,65.02
1766236927788,16.75,-10.89,128.26,325.859,324.590,942.627,-7.42,27.08,68.77
1766236927798,16.78,-13.93,131.76,595.391,436.895,1011.963,-9.42,35.08,67.46
1766236927808,17.51,-16.87,134.67,784.355,574.590,1119.385,-7.11,38.46,58.58
1766236927818,19.44,-20.76,136.38,1009.941,670.781,1048.584,1.70,32.71,40.83
1766236927828,22.02,-26.07,136.40,1288.262,629.277,888.916,11.64,20.77,10.27
1766236927838,23.29,-29.70,135.74,1047.051,367.070,869.873,18.14,13.83,-17.60
1766236927848,20.29,-29.77,137.00,568.535,36.504,817.139,15.77,18.77,-24.73
1766236927858,17.19,-29.27,138.16,664.727,8.184,988.525,10.77,26.70,-26.23
1766236927868,16.01,-30.20,138.03,992.852,88.750,1086.182,9.95,31.77,-34.04
1766236927879,17.67,-31.96,135.98,1204.766,282.109,1005.127,13.58,33.27,-48.29
1766236927888,19.21,-34.03,133.82,1157.402,260.625,895.264,11.33,26.08,-50.29
1766236927898,18.35,-37.68,133.15,1038.262,6.719,689.209,11.39,10.83,-44.73
1766236927908,12.09,-42.42,136.72,979.668,-374.141,600.830,9.45,-6.55,-22.54
1766236927918,1.45,-47.18,144.26,965.996,-610.957,466.553,-3.30,-13.73,0.15
1766236927929,-10.85,-50.64,153.57,942.559,-688.594,421.143,-11.80,-21.80,7.59
1766236927939,-19.01,-51.49,159.42,726.738,-419.062,519.775,-23.55,-27.23,5.46
1766236927948,-15.14,-47.85,156.04,507.500,5.742,1012.451,-20.61,-28.36,2.71
1766236927959,-5.99,-42.30,149.10,216.484,479.863,1308.838,-11.11,-25.42,-10.04
1766236927968,-0.28,-32.40,145.77,-472.480,515.508,1362.061,-5.67,-10.55,3.65
1766236927978,3.88,-22.23,145.09,-576.484,548.223,1324.463,0.76,6.89,24.15
1766236927988,6.82,-13.98,146.53,-411.934,504.766,1408.447,6.83,20.14,44.83
1766236927998,8.88,-10.50,149.28,19.219,364.141,1194.092,10.52,23.95,61.96
1766236928008,8.87,-12.27,153.11,414.727,179.570,1079.346,13.20,21.08,75.58
1766236928018,7.07,-16.69,157.63,653.496,5.254,1034.424,18.20,6.14,81.15
1766236928028,0.64,-18.48,164.38,472.832,-383.418,966.064,18.26,4.58,96.77
1766236928038,-3.26,-19.53,170.92,461.113,-250.117,999.268,20.26,-0.61,108.02
1766236928049,-6.07,-20.51,178.05,485.527,-189.082,1010.986,20.39,-6.80,128.34
1766236928059,-7.11,-20.70,-176.30,426.934,-86.055,1062.256,14.58,-11.42,112.27
1766236928069,-8.24,-19.42,-170.67,304.863,-99.238,1015.381,10.52,-7.11,113.08
1766236928079,-9.44,-14.30,-164.93,-10.078,-151.973,1058.838,9.52,-0.73,117.77
1766236928088,-8.74,-9.96,-159.77,-28.633,-51.387,1137.451,7.51,3.39,115.40
1766236928098,-7.05,-7.20,-154.92,32.402,28.691,1149.170,6.08,7.08,110.52
1766236928109,-4.68,-4.85,-150.16,11.895,102.422,1136.475,6.83,10.95,107.90
1766236928119,-2.49,-2.62,-145.43,-34.980,101.934,1128.174,9.14,12.14,104.02
1766236928129,-0.09,-2.90,-140.94,134.941,157.109,1111.572,9.14,12.89,97.77
1766236928138,1.14,-1.31,-136.40,-21.797,98.516,1115.479,6.83,16.70,96.83
1766236928148,1.83,-1.32,-131.98,80.742,78.984,1084.717,3.45,15.89,93.21
1766236928158,1.92,-0.13,-127.40,-8.613,40.410,1117.920,2.08,20.02,96.40
1766236928168,2.44,-1.49,-123.00,192.559,88.262,1142.334,1.45,17.70,92.96
1766236928178,1.78,0.38,-118.33,-57.441,-6.953,1125.732,-0.67,22.33,98.21
1766236928188,2.12,-0.25,-113.71,140.312,74.102,1137.451,-1.30,23.64,97.27
1766236928198,2.34,-0.68,-109.19,127.617,62.871,1100.342,0.39,23.39,95.02
1766236928208,2.90,-2.02,-104.91,211.602,108.281,1090.576,-0.42,22.14,90.15
1766236928218,2.65,-2.33,-100.74,123.223,49.688,1028.564,-1.24,19.33,87.40
1766236928228,2.59,-3.57,-96.74,205.254,78.984,1024.658,-4.61,18.08,84.15
1766236928238,2.38,-5.67,-92.97,263.359,73.125,965.576,-5.49,11.58,79.77
1766236928248,1.23,-5.69,-88.99,130.547,19.902,949.463,-11.11,11.83,82.90
1766236928258,0.76,-7.51,-85.24,291.680,68.242,1031.006,-11.67,8.45,79.71
1766236928268,0.22,-9.14,-81.71,286.309,66.777,1024.658,-13.36,2.83,75.52
1766236928278,-1.24,-8.27,-77.90,112.480,-5.977,1003.662,-16.61,5.20,79.46
1766236928289,-1.05,-10.68,-74.47,382.500,119.023,1037.354,-16.36,1.21,76.58
1766236928299,-0.36,-13.11,-71.61,403.008,172.246,1054.443,-15.17,-6.55,67.65
1766236928309,-0.50,-12.30,-68.69,162.285,122.441,1116.455,-17.80,-5.36,66.71
1766236928318,-0.35,-10.73,-65.72,101.250,154.180,1168.701,-19.11,-0.67,68.90
1766236928329,-0.05,-10.33,-63.05,191.094,157.109,1218.994,-16.67,-0.11,61.21
1766236928338,-0.81,-8.27,-60.39,43.633,39.922,1241.943,-15.42,5.14,57.33
1766236928348,-1.35,-7.25,-58.09,129.570,13.555,1177.490,-11.36,11.45,48.96
1766236928358,-1.47,-7.89,-56.42,265.312,14.531,1167.236,-6.86,10.70,35.90
1766236928368,-1.95,-7.36,-55.01,173.516,-36.738,1166.748,-4.67,12.64,29.27
1766236928378,-1.80,-8.14,-54.06,280.449,-7.441,1162.354,-1.24,10.64,20.90
1766236928388,-1.45,-9.67,-53.79,356.133,-26.484,1191.650,5.95,5.83,6.46
1766236928398,-2.22,-7.68,-53.88,54.375,-142.695,1161.865,8.14,10.33,-5.16
1766236928409,-3.47,-2.26,-54.44,-237.617,-191.523,1124.268,5.51,27.89,-11.35
1766236928419,-3.90,2.59,-55.52,-217.598,-133.906,1187.744,4.01,46.21,-17.98
1766236928428,-2.95,4.80,-57.34,-22.285,-6.953,1210.693,6.01,55.33,-34.35
1766236928438,-2.13,5.49,-60.05,110.527,2.324,1220.459,8.08,61.77,-53.54
1766236928449,-1.60,5.58,-63.99,156.426,-12.812,1153.564,11.77,63.52,-78.35
1766236928459,-0.47,3.05,-69.81,353.691,46.270,1044.189,13.52,55.89,-116.79
1766236928468,0.28,0.77,-77.48,302.422,10.625,932.373,14.83,45.64,-153.29
1766236928479,-0.26,0.28,-86.59,156.426,-61.152,807.373,11.64,41.77,-182.04
1766236928489,-3.59,2.57,-96.87,-34.004,-188.105,767.334,1.33,44.77,-201.35
1766236928499,-5.67,6.30,-108.01,-171.699,-94.844,767.822,-7.99,51.21,-214.41
1766236928509,-11.50,10.72,-119.81,-297.676,-280.391,707.275,-12.48,60.83,-211.60
1766236928519,-16.83,14.67,-130.69,-452.461,-351.680,904.053,-18.36,71.33,-188.85
1766236928529,-20.03,15.53,-139.73,-260.566,-316.035,1010.498,-14.61,78.71,-159.60
1766236928539,-21.61,12.22,-147.44,121.270,-299.434,993.896,-8.80,83.71,-136.85
1766236928549,-23.25,9.28,-154.29,181.816,-380.977,935.303,-5.11,88.52,-113.67
1766236928559,-22.53,1.40,-160.37,732.109,-205.195,812.744,-4.42,80.08,-103.10
1766236928569,-20.31,-8.85,-166.52,1217.949,-27.461,656.494,-5.11,56.21,-106.92
1766236928579,-18.12,-19.25,-172.74,1085.625,-70.918,524.658,-10.80,29.77,-111.67
1766236928589,-14.85,-29.39,-179.65,961.113,-39.180,447.510,-15.17,2.45,-120.85
1766236928599,-9.87,-35.62,172.49,708.184,-4.023,584.229,-20.74,-15.42,-120.67
1766236928609,-5.86,-37.11,165.39,465.020,-50.410,722.412,-22.74,-31.17,-112.35
1766236928619,-1.23,-37.77,158.14,445.488,49.688,809.814,-24.99,-46.48,-103.04
1766236928629,2.03,-36.32,152.04,305.352,63.359,863.037,-27.24,-52.73,-90.04
1766236928639,3.21,-32.38,147.75,83.672,42.363,865.479,-28.99,-53.92,-71.92
1766236928649,5.70,-31.65,142.93,306.816,183.965,964.111,-28.74,-57.17,-65.60
1766236928659,7.17,-29.50,138.93,181.328,168.828,975.342,-27.49,-55.86,-58.42
1766236928669,9.02,-27.09,134.80,164.727,262.578,1054.443,-28.55,-50.42,-56.85
1766236928679,11.46,-25.49,130.29,236.016,348.516,1124.756,-22.49,-48.86,-62.85
1766236928689,11.69,-19.77,127.16,-142.891,230.840,1076.416,-23.11,-33.54,-56.35
1766236928699,12.97,-16.26,123.92,15.312,356.328,1129.639,-18.55,-23.42,-54.17
1766236928709,14.55,-13.65,120.86,57.305,379.766,1096.924,-9.36,-19.05,-52.92
1766236928719,15.57,-10.58,118.53,-7.637,369.023,1092.041,-6.55,-10.48,-43.67
1766236928729,16.66,-8.70,116.74,58.281,381.230,1054.932,-2.11,-4.92,-34.10
1766236928739,16.77,-6.23,115.75,-16.914,322.637,1050.537,-1.86,2.20,-22.35
1766236928748,16.87,-4.80,115.63,36.797,346.562,1084.717,-2.30,8.89,-5.10
1766236928758,18.22,-7.03,115.84,328.301,432.012,1011.963,1.95,8.08,4.46
1766236928768,18.85,-7.25,116.69,174.492,398.320,1034.424,3.01,9.83,16.77
1766236928778,19.52,-8.77,117.96,300.469,419.805,1053.467,5.33,11.39,25.21
1766236928789,19.94,-10.45,120.03,338.555,425.176,1045.166,4.95,15.20,40.96
1766236928798,20.89,-14.71,122.23,607.598,472.051,1001.221,9.02,9.27,46.96
1766236928808,21.62,-19.77,124.39,700.859,431.523,906.494,12.08,1.33,48.40
1766236928818,21.06,-23.37,127.13,599.785,344.609,872.803,9.64,1.33,54.27
1766236928828,19.89,-26.05,130.26,649.590,367.559,954.834,3.33,5.20,59.52
1766236928838,19.83,-29.62,132.79,858.086,450.566,919.189,4.08,6.89,55.52
1766236928849,20.62,-33.84,134.07,1087.578,495.000,923.584,8.20,-2.11,37.71
1766236928859,22.36,-38.15,133.69,1256.523,462.285,925.537,17.70,-14.61,8.34
1766236928869,23.17,-40.06,133.05,1017.266,293.828,981.201,23.08,-17.80,-16.10
1766236928879,20.83,-38.99,134.40,623.711,58.477,925.049,24.14,-8.11,-23.29
1766236928889,17.89,-38.38,135.90,683.281,-11.836,921.631,17.70,0.33,-25.79
1766236928898,16.93,-39.54,135.93,920.586,37.969,882.568,17.51,4.02,-32.35
1766236928909,17.80,-40.03,134.63,1001.641,182.500,958.252,15.83,7.08,-36.85
1766236928919,19.27,-41.64,132.88,1113.945,198.125,901.611,18.76,-0.42,-39.42
1766236928929,18.58,-43.49,132.98,1017.266,42.852,870.361,22.58,-10.48,-28.92
1766236928939,13.08,-47.05,136.92,950.371,-247.188,712.158,14.89,-24.61,-8.73
1766236928949,3.22,-51.23,144.79,973.320,-553.340,621.826,12.02,-39.48,2.96
1766236928959,-11.66,-53.09,157.27,717.461,-693.965,482.666,1.08,-42.92,18.33
1766236928969,-21.74,-51.26,166.17,684.258,-605.586,748.291,-4.80,-43.79,29.15
1766236928979,-20.98,-47.58,166.84,540.703,-194.453,1121.826,-3.80,-47.73,30.71
1766236928989,-13.22,-42.16,162.86,117.363,287.969,1306.396,6.08,-49.67,22.27
1766236928999,-5.30,-34.88,159.44,-232.734,485.234,1220.459,10.52,-37.23,22.58
1766236929009,0.78,-26.12,158.19,-532.539,578.984,1217.529,10.89,-22.67,33.83
1766236929019,6.99,-19.89,157.94,-245.918,653.691,1150.146,16.39,-12.36,40.21
1766236929029,12.04,-16.98,158.59,28.984,615.117,1138.916,21.14,-10.17,42.52
1766236929039,14.03,-13.81,160.87,-41.816,424.688,1179.443,20.64,-3.98,56.33
1766236929049,15.14,-14.30,163.87,242.852,384.648,1214.600,23.14,-6.11,67.83
1766236929059,14.74,-16.27,167.74,342.949,245.977,1099.365,23.70,-9.05,79.65
1766236929069,13.55,-20.60,171.93,514.336,126.836,990.967,31.64,-22.55,81.40
1766236929079,9.58,-21.68,177.63,284.844,-87.031,967.041,34.70,-23.48,89.21
1766236929089,4.59,-19.29,-175.86,49.004,-215.449,982.178,33.58,-20.67,98.46
1766236929099,0.17,-16.86,-169.42,63.164,-267.207,1048.584,28.20,-16.42,103.83
1766236929109,-2.61,-14.37,-163.61,69.023,-190.059,1009.521,20.83,-9.61,104.52
1766236929119,-4.35,-12.20,-158.15,71.953,-167.109,1013.428,19.01,-8.55,104.65
1766236929129,-4.08,-12.81,-153.48,268.730,-39.180,1084.229,17.39,-11.73,97.27
1766236929139,-3.82,-13.14,-148.88,250.176,-24.043,1073.975,15.52,-11.80,96.46
1766236929149,-3.92,-12.87,-144.22,186.211,-39.180,1090.576,12.64,-16.42,96.58
1766236929159,-3.25,-14.15,-139.75,319.512,38.457,1114.502,11.83,-17.86,96.46
1766236929169,-3.70,-12.50,-134.74,74.395,-44.551,1103.760,11.08,-18.23,103.40
1766236929179,-3.18,-11.62,-129.79,108.574,36.992,1157.959,9.27,-19.48,106.83
1766236929189,-3.00,-11.40,-124.42,159.355,19.414,1147.217,8.95,-17.80,114.40
1766236929199,-3.44,-9.12,-118.51,-15.938,-38.691,1168.701,8.52,-14.11,124.77
1766236929209,-2.87,-9.29,-112.61,160.820,36.992,1149.658,9.89,-15.23,127.15
1766236929219,-2.87,-9.56,-106.57,166.191,-11.348,1111.572,11.52,-15.48,128.09
1766236929229,-2.84,-9.06,-100.61,95.391,-1.582,1064.209,9.52,-15.98,126.83
1766236929239,-2.83,-7.14,-94.81,-46.699,-9.395,1037.842,7.89,-18.05,123.71
1766236929248,-2.50,-7.25,-89.41,85.625,22.832,1046.143,3.83,-18.67,115.46
1766236929259,-2.66,-5.54,-84.30,-60.859,-8.418,1034.912,-0.11,-16.80,108.83
1766236929269,-3.24,-3.27,-79.47,-115.547,-46.016,989.990,-4.55,-12.36,102.40
1766236929279,-3.66,-0.96,-75.08,-139.961,-45.527,989.014,-8.42,-8.05,93.21
1766236929288,-3.38,0.13,-71.31,-69.648,2.324,994.385,-10.42,-4.48,79.90
1766236929299,-3.21,1.36,-67.94,-85.273,11.602,1103.271,-15.11,2.20,71.02
1766236929309,-3.48,3.56,-64.84,-148.750,-10.859,1086.670,-20.42,13.27,66.33
1766236929319,-2.58,3.39,-61.95,54.863,88.262,1096.436,-20.74,21.70,59.71
1766236929329,-0.99,2.17,-59.41,179.375,180.059,1156.494,-19.11,26.45,52.08
1766236929338,0.87,0.32,-57.28,279.473,245.000,1219.482,-15.36,26.77,44.08
1766236929348,1.55,0.56,-55.36,123.711,180.547,1278.564,-17.86,31.70,39.46
1766236929359,1.65,1.75,-53.42,56.328,114.141,1280.029,-14.55,39.71,39.27
1766236929369,1.98,1.18,-51.80,228.203,113.164,1253.662,-9.36,42.58,32.27
1766236929379,2.59,-1.12,-50.92,397.148,112.676,1210.693,-1.42,37.71,17.33
1766236929388,2.89,-2.54,-50.54,334.648,67.266,1215.088,4.08,34.02,6.52
1766236929399,3.47,-4.76,-50.66,440.117,63.848,1234.619,11.70,29.02,-3.23
1766236929409,4.62,-7.47,-52.18,513.359,85.820,1198.486,17.89,22.52,-31.17
1766236929419,4.12,-6.64,-53.07,192.070,-49.922,1110.596,18.83,26.14,-24.54
1766236929428,3.46,-3.75,-54.56,28.008,-61.641,1085.205,16.58,34.64,-36.17
1766236929438,3.91,-3.38,-57.33,212.578,20.391,1032.959,15.83,39.27,-59.92
1766236929449,4.82,-4.83,-62.00,383.965,51.641,1040.771,16.14,37.46,-97.48
1766236929459,4.85,-4.88,-68.47,266.289,-10.859,984.619,13.45,33.46,-135.66
1766236929469,5.19,-5.04,-76.82,244.316,6.719,827.881,11.45,33.27,-172.10
1766236929479,6.46,-7.20,-87.18,345.391,36.992,715.088,12.14,25.20,-207.85
1766236929489,5.33,-6.24,-98.09,175.957,-71.406,747.803,5.76,24.20,-225.41
1766236929499,2.76,-3.20,-109.29,13.359,-151.973,848.877,2.14,24.83,-229.60
1766236929509,-2.40,1.59,-120.42,-201.973,-320.430,792.725,3.64,30.58,-220.85
1766236929519,-8.00,7.37,-130.59,-471.016,-478.633,967.529,2.20,45.77,-188.73
1766236929529,-12.19,9.57,-139.48,-232.246,-426.875,1040.283,4.83,58.96,-160.79
1766236929539,-15.19,7.91,-147.45,81.230,-399.043,996.338,6.70,65.71,-143.60
1766236929549,-17.86,3.53,-154.74,319.512,-399.531,837.158,3.83,67.89,-130.85
1766236929559,-18.50,-4.96,-161.68,731.133,-293.574,689.209,1.89,58.46,-128.98
1766236929569,-17.86,-14.39,-168.63,903.496,-254.512,610.596,-0.11,40.64,-133.41
1766236929579,-17.11,-23.28,-175.44,793.145,-258.906,499.268,-6.74,22.95,-137.54
1766236929589,-16.27,-29.27,178.34,562.188,-266.230,516.357,-11.30,5.27,-132.98
1766236929599,-12.35,-33.72,170.67,578.789,-143.184,682.861,-15.86,-16.30,-135.91
1766236929609,-7.58,-35.91,162.54,468.438,-57.246,709.717,-22.05,-27.86,-130.66
1766236929619,-3.58,-34.55,155.13,274.102,-17.695,762.451,-27.42,-33.61,-117.92
1766236929629,0.82,-33.65,147.72,342.461,108.281,816.162,-32.99,-33.11,-106.10
1766236929639,7.23,-33.58,139.57,498.223,382.207,930.908,-29.86,-36.17,-96.35
1766236929649,10.64,-31.70,133.43,355.645,264.043,953.857,-26.86,-37.29,-87.29
1766236929659,14.02,-30.44,127.36,412.773,349.004,1007.080,-24.74,-40.98,-86.17
1766236929669,16.99,-28.29,121.84,345.391,416.387,1050.049,-22.49,-38.54,-79.92
1766236929679,18.98,-25.34,117.23,253.594,439.824,1115.479,-19.24,-35.67,-71.92
1766236929689,21.15,-23.18,112.76,210.625,512.578,1111.084,-15.73,-49.67,-63.85
1766236929699,23.44,-21.27,109.01,257.012,576.543,1087.158,-8.48,-34.23,-53.98
1766236929709,25.14,-18.18,106.27,90.508,613.164,1137.451,-3.55,-31.23,-39.04
1766236929719,26.82,-17.08,104.01,213.066,627.812,1152.100,7.01,-33.86,-29.60
1766236929729,27.61,-14.59,102.73,11.406,538.945,1052.979,8.45,-31.48,-13.54
1766236929739,28.49,-14.21,102.22,151.543,555.059,1038.818,13.89,-26.61,2.77
1766236929749,28.97,-15.67,102.50,312.188,555.547,1114.990,20.26,-25.86,17.71
1766236929759,29.35,-16.07,103.36,205.742,534.551,1100.342,26.26,-24.86,29.02
1766236929769,29.46,-17.61,104.83,321.465,502.812,1088.135,30.39,-20.67,38.46
1766236929779,29.05,-18.78,106.86,301.445,434.941,1041.748,33.14,-16.36,44.33
1766236929789,28.23,-19.26,109.54,270.195,398.320,1015.869,32.95,-7.73,51.58
1766236929799,26.79,-19.62,113.09,273.125,345.586,984.131,31.33,1.27,62.33
1766236929809,25.18,-22.80,116.97,521.172,302.129,908.447,27.45,3.52,66.77
1766236929819,23.73,-27.84,120.76,795.098,308.965,847.900,19.83,3.39,64.71
1766236929829,22.59,-32.75,124.08,931.816,341.680,818.604,14.20,1.77,58.65
1766236929839,21.94,-38.00,126.68,1127.617,335.332,768.311,15.64,-2.30,46.71
1766236929849,21.50,-43.14,127.92,1342.461,209.355,793.701,21.01,-14.17,12.84
1766236929859,20.51,-46.02,128.35,1111.504,-7.930,809.814,27.08,-17.92,-29.79
1766236929869,14.59,-44.69,132.61,684.258,-269.160,947.998,27.58,-7.55,-27.92
1766236929879,8.30,-41.01,136.94,534.355,-331.172,1029.053,19.76,9.83,-23.04
1766236929889,5.73,-40.41,138.40,817.559,-187.129,914.795,15.89,16.45,-23.10
1766236929899,5.97,-40.98,137.87,952.324,-43.086,865.967,17.45,18.58,-27.23
1766236929909,6.14,-43.61,137.19,1174.492,-36.738,746.338,9.95,15.58,-26.54
1766236929919,2.47,-44.43,139.65,875.176,-192.012,742.432,2.45,10.27,-7.10
1766236929929,-1.00,-48.36,142.35,1208.672,-222.773,672.607,1.01,-12.17,2.84
1766236929939,-9.44,-51.38,149.27,902.031,-383.418,506.592,-7.61,-24.17,19.15
1766236929949,-19.98,-49.47,157.97,544.609,-420.527,543.213,-18.99,-22.05,37.71
1766236929959,-23.02,-44.27,161.20,395.684,-242.793,785.400,-20.92,-18.73,53.58
1766236929969,-18.69,-38.77,159.91,280.449,113.652,1217.529,-14.36,-24.36,53.46
1766236929979,-13.03,-30.88,159.25,-141.914,235.723,1211.182,8.27,-20.61,55.02
1766236929989,-7.93,-22.20,159.63,-408.027,374.395,1285.400,3.51,-9.92,57.90
1766236929999,-3.90,-13.35,161.55,-487.617,396.855,1267.822,-1.74,9.95,70.08
1766236930009,0.31,-9.49,164.14,-48.164,453.984,1265.381,-3.11,15.39,73.83
1766236930019,3.52,-8.64,167.51,135.918,352.422,1171.631,6.01,9.52,80.15
1766236930029,5.70,-10.31,171.71,324.883,312.871,1140.869,9.33,5.33,94.02
1766236930039,6.25,-12.23,176.94,323.418,179.082,1105.225,18.01,-1.61,110.27
1766236930049,5.99,-15.83,-177.40,474.297,135.625,1036.377,18.64,-8.05,117.40
1766236930059,4.50,-16.54,-171.10,257.988,56.523,1008.057,17.58,-11.11,124.83
1766236930069,1.66,-14.16,-164.05,49.980,-59.199,1029.541,13.20,-6.48,134.65
1766236930079,-0.71,-9.41,-157.02,-149.727,-98.262,1053.467,10.45,0.21,139.84
1766236930089,-1.59,-6.43,-150.40,-42.793,-38.203,1085.205,6.58,6.52,138.27
1766236930099,-0.96,-6.19,-144.31,149.102,71.660,1089.111,4.20,9.14,130.90
1766236930109,-0.29,-6.77,-138.66,205.254,91.680,1053.955,2.14,9.02,121.96
1766236930119,0.06,-5.83,-133.32,91.973,70.684,1087.158,2.33,11.02,114.52
1766236930130,0.92,-3.39,-128.25,-60.859,101.934,1136.963,4.64,12.64,109.46
1766236930139,2.22,-3.14,-123.40,87.090,162.480,1172.607,2.95,12.45,104.21
1766236930149,3.14,-0.83,-118.30,-94.062,147.344,1176.514,1.76,19.33,109.02
1766236930159,4.84,-1.12,-113.30,96.367,223.027,1165.771,4.39,19.20,105.96
1766236930169,5.46,0.32,-107.99,-41.816,146.367,1128.174,2.89,25.89,111.46
1766236930179,6.04,-0.01,-102.73,87.578,148.320,1137.939,3.76,25.58,109.90
1766236930189,6.38,-0.86,-97.56,139.336,141.973,1119.385,3.01,25.64,108.02
1766236930199,5.46,-0.65,-92.37,56.816,30.156,1087.646,3.08,25.33,108.08
1766236930209,5.15,-3.14,-87.48,297.539,80.449,1103.271,2.26,21.70,102.40
1766236930219,3.35,-2.76,-82.36,86.602,-40.156,1025.635,-0.30,23.64,105.65
1766236930229,2.07,-4.98,-77.60,298.516,-15.254,1010.986,-2.61,19.52,98.90
1766236930239,-0.49,-4.99,-72.78,155.938,-115.352,958.252,-7.24,20.64,98.02
1766236930249,-1.84,-7.42,-68.55,365.898,-48.457,990.967,-9.55,15.58,88.15
1766236930259,-4.02,-7.01,-64.38,166.680,-116.816,950.928,-13.11,15.89,85.40
1766236930269,-4.21,-8.31,-60.85,305.352,15.508,990.479,-14.98,12.52,77.40
1766236930279,-4.02,-9.39,-57.78,293.633,56.035,1019.775,-17.30,7.27,68.96
1766236930289,-3.52,-9.51,-54.95,230.156,95.586,1056.885,-19.17,6.08,65.77
1766236930299,-2.50,-10.69,-52.42,336.113,164.434,1130.615,-18.80,3.45,61.33
1766236930309,-1.72,-11.65,-50.18,342.461,155.156,1215.088,-15.80,0.21,54.08
1766236930319,-2.17,-10.36,-47.84,158.379,29.668,1260.986,-13.48,5.08,51.02
1766236930329,-1.82,-10.16,-45.94,274.590,77.031,1290.283,-9.55,9.83,43.96
1766236930339,-1.67,-10.37,-44.60,311.211,6.230,1268.799,-0.92,10.77,29.33
1766236930349,-1.56,-9.85,-43.74,233.086,-32.344,1213.135,4.76,12.52,18.15
1766236930359,-1.04,-10.05,-43.36,286.797,-20.137,1165.771,9.70,13.14,8.46
1766236930369,-0.08,-10.99,-43.88,345.391,3.301,1171.631,12.89,9.08,-9.16
1766236930379,0.78,-10.64,-45.43,235.039,-15.742,1160.889,14.89,9.08,-32.04
1766236930389,-0.11,-5.39,-47.43,-179.512,-144.648,1116.943,11.45,22.45,-45.10
1766236930399,-1.02,0.23,-50.47,-253.730,-136.836,1085.205,9.39,36.02,-61.98
1766236930409,-0.58,2.66,-55.00,-37.910,-9.395,1140.381,8.64,44.71,-91.48
1766236930419,0.97,0.77,-61.77,297.539,82.402,1068.604,13.08,41.46,-136.60
1766236930429,-0.47,3.61,-70.58,-59.395,-90.938,890.381,9.14,43.96,-175.29
1766236930439,-2.24,5.42,-81.34,-39.375,-88.008,799.072,8.39,45.71,-210.16
1766236930449,-6.14,9.21,-93.50,-221.504,-178.828,781.982,1.51,50.39,-227.48
1766236930459,-9.88,9.00,-106.09,-71.602,-189.082,784.912,-0.17,48.58,-235.73
1766236930469,-15.52,9.16,-118.50,-174.629,-378.047,787.842,-2.11,46.83,-225.79
1766236930479,-21.87,12.60,-129.60,-492.988,-561.152,795.654,-6.30,61.89,-189.73
1766236930490,-25.12,12.34,-138.73,-218.574,-460.566,993.896,-12.55,73.89,-161.79
1766236930499,-26.45,8.71,-146.68,146.172,-369.258,961.670,-15.61,84.96,-140.79
1766236930509,-25.89,1.79,-154.26,504.082,-242.793,850.342,-15.61,82.96,-135.10
1766236930519,-23.80,-8.07,-162.14,929.375,-101.680,709.717,-14.80,65.89,-140.73
1766236930530,-21.33,-18.45,-170.23,1020.684,-110.957,568.115,-15.80,43.89,-146.04
1766236930540,-18.69,-28.40,-178.31,957.695,-155.879,469.971,-18.55,20.33,-148.79
1766236930549,-13.93,-33.81,173.07,587.578,-74.336,549.072,-24.36,3.45,-139.66
1766236930560,-10.58,-36.07,165.63,463.066,-134.395,636.963,-25.99,-14.61,-129.41
1766236930569,-5.86,-37.12,157.90,451.836,-8.418,738.037,-28.80,-28.05,-113.79
1766236930579,-1.64,-35.25,151.12,266.777,71.172,798.584,-32.67,-38.36,-92.79
1766236930589,3.47,-36.42,144.09,527.031,254.766,903.564,-33.80,-51.04,-81.73
1766236930599,7.43,-36.76,138.09,501.152,275.762,950.439,-32.67,-56.23,-68.04
1766236930609,12.10,-36.63,131.57,459.648,368.047,963.623,-27.42,-66.42,-69.79
1766236930619,14.57,-32.73,126.58,138.359,331.914,1020.264,-28.74,-61.54,-61.79
1766236930629,16.83,-29.98,121.78,218.926,395.879,1119.873,-23.11,-60.48,-63.29
1766236930639,18.02,-25.61,117.83,23.125,394.902,1155.518,-21.80,-54.11,-58.23
1766236930649,18.96,-20.44,114.61,-106.270,448.125,1197.021,-16.74,-41.11,-50.23
1766236930659,20.28,-15.96,111.88,-90.156,502.812,1155.518,-8.92,-30.05,-42.73
1766236930669,20.85,-11.96,110.27,-98.945,471.074,1200.928,-0.67,-17.73,-28.73
1766236930679,22.10,-9.93,109.29,46.074,535.527,1180.420,7.08,-8.67,-15.91
1766236930689,23.14,-9.79,108.86,185.723,495.000,1165.283,16.58,-7.11,-5.91
1766236930699,24.45,-10.40,109.04,230.645,478.398,1026.611,20.20,-2.80,6.52
1766236930709,25.28,-10.61,110.28,188.652,476.445,1037.842,21.14,2.52,26.77
1766236930719,26.79,-12.93,112.01,349.297,532.109,921.631,18.70,4.14,40.71
1766236930729,27.49,-17.10,113.91,551.445,493.535,941.650,21.45,-2.86,43.77
1766236930739,26.46,-19.32,116.73,382.012,374.395,877.197,14.83,-0.23,55.08
1766236930749,25.84,-23.33,119.40,602.227,413.945,851.807,9.39,-1.29,55.15
1766236930759,23.99,-28.59,122.52,832.695,310.430,838.135,7.20,-2.30,52.46
1766236930769,22.67,-33.80,125.08,1002.617,320.195,836.670,8.39,-6.73,43.71
1766236930779,23.30,-39.00,125.63,1179.863,398.809,795.166,11.14,-17.61,21.83
1766236930789,24.60,-42.47,124.67,1199.883,347.539,892.822,18.70,-24.42,-10.23
1766236930799,24.08,-40.99,124.71,738.457,213.262,1089.600,26.95,-18.86,-28.29
1766236930809,21.20,-36.37,126.61,382.500,82.891,1114.014,27.58,-2.73,-24.17
1766236930819,19.69,-36.38,127.37,750.664,80.938,951.904,24.08,3.39,-24.29
1766236930829,19.58,-37.23,127.06,839.043,141.484,865.967,21.01,6.64,-29.48
1766236930839,22.21,-39.04,125.08,1084.160,284.551,878.174,33.39,3.08,-38.48
1766236930849,21.52,-43.12,125.06,1038.262,-15.254,639.893,27.33,-8.80,-36.04
1766236930859,16.03,-49.10,128.58,1123.711,-422.480,526.123,22.33,-27.86,-30.85
1766236930869,6.04,-54.97,136.07,1122.734,-748.652,470.947,15.02,-46.42,-26.10
1766236930879,-9.94,-56.36,148.77,691.094,-912.227,537.354,-1.05,-51.67,-19.60
1766236930889,-22.60,-53.81,158.53,425.469,-708.125,598.877,-12.73,-54.17,-16.85
1766236930900,-21.77,-46.36,157.20,56.328,-324.336,1156.006,-21.86,-45.73,-13.60
1766236930910,-14.79,-38.28,152.03,-241.035,246.465,1546.143,-18.42,-27.36,-7.48
1766236930919,-7.36,-30.37,148.06,-303.047,599.980,1536.865,-10.67,-12.11,8.09
1766236930929,-1.55,-22.42,147.06,-331.855,598.027,1374.268,-1.30,-1.23,35.02
1766236930939,3.15,-17.73,148.75,-36.934,575.078,1438.232,13.95,1.14,65.77
1766236930949,6.05,-17.39,152.37,268.242,352.910,1173.096,25.64,-6.48,89.27
1766236930959,3.23,-16.20,159.16,134.453,-92.891,946.533,31.95,-8.36,120.21
1766236930969,0.06,-18.43,167.03,365.898,-150.508,887.939,34.20,-17.36,139.65
1766236930979,-4.45,-17.97,176.40,253.105,-258.906,958.252,29.83,-18.17,163.59
1766236930989,-7.48,-18.96,-174.42,433.281,-212.031,1045.166,25.64,-22.30,171.09
1766236931000,-11.15,-15.47,-165.06,83.672,-327.754,968.994,28.58,-22.36,172.21
1766236931010,-12.98,-12.49,-156.65,107.598,-293.086,1011.963,25.83,-17.98,166.90
1766236931020,-12.87,-9.67,-149.21,65.605,-181.758,1022.705,20.14,-15.92,157.65
1766236931030,-11.32,-5.70,-142.57,-90.645,-89.473,1042.236,17.01,-11.05,146.21
1766236931039,-8.77,-1.10,-136.39,-251.777,-11.348,1091.064,16.33,-7.80,135.90
1766236931049,-5.39,3.79,-130.57,-318.184,78.496,1117.432,15.14,13.89,127.27
1766236931059,-1.85,4.79,-124.70,-120.918,139.531,1148.682,12.58,5.45,121.77
1766236931069,0.21,7.37,-118.76,-253.242,73.125,1114.990,6.64,17.33,124.21
1766236931079,2.46,6.43,-113.00,19.219,126.836,1093.018,5.26,21.52,118.58
1766236931089,3.58,6.29,-107.34,-29.609,93.633,1075.928,-0.36,25.58,117.65
1766236931099,4.85,3.27,-102.06,220.391,148.809,1067.139,-0.92,24.58,110.08
1766236931109,4.75,1.71,-96.95,140.801,76.055,1056.885,-3.67,25.14,107.21
1766236931119,5.00,-1.30,-92.25,298.027,128.301,1091.064,-3.36,20.77,99.02
1766236931129,4.94,-2.33,-87.56,170.098,131.230,1084.229,-6.49,20.95,98.33
1766236931139,5.31,-4.47,-83.16,273.613,175.176,1092.041,-4.36,15.45,93.33
1766236931149,5.19,-4.57,-78.62,130.059,156.133,1114.502,-6.67,16.20,95.58
1766236931159,5.54,-6.44,-74.40,259.453,184.453,1064.697,-3.74,9.52,90.46
1766236931169,5.06,-6.60,-69.99,137.383,130.742,1067.139,-5.92,9.08,92.83
1766236931179,4.98,-9.23,-65.95,337.090,159.551,1034.912,-5.36,3.08,86.96
1766236931189,3.81,-9.86,-61.72,190.605,74.102,1001.709,-6.80,0.58,87.58
1766236931199,2.22,-10.23,-57.50,193.535,30.156,1028.076,-9.17,0.71,86.02
1766236931209,1.18,-11.58,-53.71,272.637,45.293,998.291,-8.36,-3.17,78.58
1766236931219,0.11,-11.31,-50.15,171.074,37.969,1008.545,-12.11,-2.23,74.40
1766236931229,-0.51,-11.53,-46.91,231.621,73.125,1049.561,-16.11,0.27,69.65
1766236931239,-0.11,-13.06,-44.41,375.176,160.527,1130.615,-16.24,-2.23,58.65
1766236931249,0.00,-12.91,-42.16,268.730,145.879,1215.088,-16.67,0.08,52.65
1766236931259,-0.12,-11.49,-39.94,172.051,137.578,1302.979,-18.80,5.33,51.33
1766236931269,0.63,-11.72,-38.41,313.164,172.734,1284.912,-10.92,4.95,38.08
1766236931279,1.13,-11.23,-37.40,242.852,110.723,1246.826,-4.49,7.08,24.46
1766236931289,2.42,-11.76,-37.21,335.137,159.062,1216.064,0.95,7.39,9.27
1766236931299,4.43,-13.98,-38.42,493.340,185.430,1197.998,10.14,-0.54,-17.60
1766236931309,6.29,-14.21,-40.64,339.043,148.320,1209.229,16.58,-1.48,-41.48
1766236931319,7.07,-11.36,-43.52,87.578,65.801,1222.900,17.01,7.14,-62.42
1766236931329,7.80,-8.34,-47.52,57.305,47.734,1072.998,20.95,14.83,-86.98
1766236931339,8.02,-3.62,-52.51,-84.785,40.898,1062.256,18.83,26.27,-108.23
1766236931349,8.67,-1.55,-59.61,77.324,83.379,1056.396,22.39,24.39,-149.10
1766236931359,5.10,3.26,-68.68,-157.539,-194.453,874.268,25.33,24.52,-184.48
1766236931369,0.58,8.67,-79.72,-336.250,-255.977,939.209,20.39,29.39,-208.73
1766236931379,-7.76,11.87,-92.57,-328.438,-538.691,816.162,21.33,30.89,-218.79
1766236931389,-14.68,9.04,-104.94,-16.426,-601.680,899.170,22.70,31.08,-215.23
1766236931400,-22.55,8.95,-116.46,-281.562,-798.457,683.350,23.76,36.77,-197.48
1766236931410,-29.34,7.88,-126.36,-225.410,-931.270,749.268,15.33,52.33,-170.10
1766236931419,-32.03,3.69,-134.47,136.406,-709.590,862.061,7.26,64.46,-145.48
1766236931430,-33.23,-1.69,-141.59,309.258,-540.156,733.154,-3.24,67.39,-127.48
1766236931440,-32.79,-7.81,-148.21,391.289,-407.344,638.916,-5.42,58.64,-120.10
1766236931450,-31.25,-16.92,-154.21,703.301,-305.293,590.088,-11.98,34.02,-111.35
1766236931460,-29.57,-25.49,-160.69,644.707,-286.738,522.217,-21.55,16.14,-127.48
1766236931470,-27.27,-29.87,-166.93,406.426,-276.973,556.396,-23.80,0.08,-122.85
1766236931480,-23.24,-31.25,-173.69,294.609,-199.336,670.166,-26.61,-13.17,-116.17
1766236931490,-17.48,-32.53,178.79,324.883,-58.223,749.756,-28.67,-24.86,-110.04
1766236931500,-11.48,-33.95,171.18,412.773,51.641,849.854,-32.30,-33.98,-100.73
1766236931510,-5.82,-33.84,164.08,330.742,115.605,857.178,-30.24,-41.29,-88.85
1766236931519,0.68,-33.70,156.71,370.781,282.109,969.971,-24.86,-52.04,-83.60
1766236931530,7.22,-33.53,149.26,430.352,427.617,1069.092,-21.30,-59.36,-82.17
1766236931540,11.48,-30.18,143.42,138.359,374.395,1059.814,-20.11,-58.17,-70.85
1766236931550,15.42,-28.13,138.04,221.367,438.848,1074.951,-12.55,-60.79,-66.42
1766236931559,17.93,-24.44,133.86,47.539,472.051,1209.229,-9.36,-55.73,-56.29
1766236931569,20.97,-21.61,130.06,83.184,485.234,1190.186,16.01,-54.79,-53.98
1766236931580,21.51,-16.22,127.77,-230.781,405.156,1189.209,4.76,-41.92,-39.10
1766236931589,22.74,-13.72,125.69,-0.801,490.605,1228.760,13.70,-35.23,-32.35
1766236931600,24.08,-10.00,124.34,-156.562,485.723,1135.986,21.14,-25.55,-20.98
1766236931609,25.37,-7.34,123.80,-102.363,510.625,1121.338,23.76,-14.61,-6.91
1766236931619,26.42,-5.54,124.05,-72.090,531.133,1181.396,28.01,-6.98,7.59
1766236931629,27.47,-4.72,124.81,-8.613,494.512,1064.697,30.33,-1.79,17.40
1766236931639,27.56,-3.44,126.47,-76.484,422.734,1029.541,27.83,4.27,34.15
1766236931649,28.09,-5.88,128.51,209.648,453.984,949.951,23.39,5.39,43.77
1766236931659,28.00,-9.03,130.75,290.703,408.574,891.846,19.39,4.39,47.02
1766236931669,26.56,-10.81,133.67,239.922,345.098,881.104,9.64,12.33,54.58
1766236931679,26.14,-15.81,136.54,601.738,425.664,854.736,5.70,15.27,54.46
1766236931689,26.22,-21.76,138.69,968.438,516.484,924.072,6.51,10.70,42.27
1766236931699,27.25,-27.41,139.13,1210.625,563.359,966.064,14.14,-1.73,14.09
1766236931710,29.15,-32.40,137.70,1204.766,460.820,857.178,22.64,-13.48,-20.92
1766236931719,29.51,-34.13,136.55,881.523,301.152,930.420,25.95,-12.61,-39.23
1766236931729,28.63,-34.39,136.04,804.375,192.754,1024.658,30.26,-8.80,-48.04
1766236931739,26.65,-34.94,135.98,802.422,58.477,968.994,27.89,-4.48,-53.85
1766236931749,24.26,-35.72,135.96,866.875,-8.418,954.346,21.26,2.02,-58.29
1766236931759,23.95,-36.48,134.42,979.180,113.164,944.092,18.01,6.95,-66.54
1766236931769,24.96,-38.81,131.95,1221.367,155.645,889.893,19.39,0.02,-69.23
1766236931779,24.88,-42.44,130.69,1160.332,-7.930,729.248,27.01,-10.86,-59.42
1766236931790,19.68,-48.42,133.31,1194.512,-452.754,562.744,18.45,-29.05,-44.54
1766236931800,10.39,-54.78,139.97,1209.648,-737.422,463.623,12.52,-43.54,-28.60
1766236931810,-1.63,-60.47,149.35,1195.977,-786.738,414.795,-2.11,-60.48,-23.98
1766236931820,-14.46,-63.57,159.96,935.723,-649.531,475.830,-7.74,-75.17,-25.29
1766236931830,-17.40,-56.54,161.47,148.613,-346.797,1043.213,-24.67,-68.29,-15.41
1766236931840,-11.69,-48.15,156.29,-161.445,184.453,1467.529,-25.61,-45.79,-0.42
1766236931850,-4.87,-39.84,152.11,-329.414,541.387,1452.881,-9.05,-36.48,18.33
1766236931859,1.62,-32.21,150.13,-325.996,724.004,1466.064,8.77,-28.61,36.65
1766236931869,6.54,-25.08,151.00,-345.527,676.152,1502.686,27.45,-20.42,59.08
1766236931879,9.36,-19.84,154.29,-177.070,446.172,1337.158,35.83,-14.92,83.65
1766236931889,9.46,-19.15,159.36,174.004,158.086,1120.361,42.39,-18.61,101.02
1766236931900,5.98,-20.67,166.35,347.832,-127.070,1089.111,42.14,-23.17,117.33
1766236931910,0.78,-22.45,174.76,431.328,-311.152,1072.510,41.76,-27.86,131.09
1766236931920,-5.29,-21.85,-175.81,278.496,-434.688,1024.658,41.45,-31.61,144.15
1766236931930,-10.40,-20.07,-166.71,220.391,-473.262,1046.631,37.95,-34.04,146.15
1766236931940,-15.17,-15.01,-158.12,-31.074,-491.328,924.561,27.20,-26.92,148.34
1766236931950,-16.86,-7.11,-151.01,-347.480,-406.367,1060.303,17.14,-15.61,146.84
1766236931960,-15.07,-2.17,-144.76,-203.926,-176.875,1160.400,13.08,-8.73,139.02
1766236931970,-12.01,1.08,-138.90,-144.844,-46.992,1167.236,10.08,-0.86,129.40
1766236931979,-9.04,4.61,-133.29,-229.805,-16.230,1162.354,8.77,8.58,121.46
1766236931989,-6.24,7.89,-127.83,-272.773,-8.418,1185.791,9.77,17.39,115.58
1766236931999,-3.30,8.09,-122.71,-32.051,61.895,1160.400,6.83,25.08,105.33
1766236932009,-2.04,10.26,-117.85,-173.652,-26.484,1098.877,1.89,36.96,102.90
1766236932019,-1.04,9.70,-113.22,28.496,1.836,1040.283,-5.30,38.77,96.46
1766236932029,0.34,9.83,-108.54,-4.707,58.965,1071.045,-5.74,44.89,95.27
1766236932040,1.87,8.40,-104.04,119.316,114.141,1077.393,-7.61,43.77,90.21
1766236932049,2.58,8.68,-99.56,-7.637,80.938,1095.947,-9.36,45.33,91.02
1766236932059,3.74,7.72,-94.92,100.762,153.203,1127.197,-12.11,46.46,92.27
1766236932069,5.37,5.21,-90.44,243.828,222.051,1122.803,-7.92,41.96,88.90
1766236932079,6.85,2.78,-85.93,257.012,255.254,1126.221,-6.86,37.71,90.46
1766236932089,8.02,-0.48,-81.72,361.504,271.855,1150.635,-3.99,30.52,86.58
1766236932099,8.27,-3.03,-77.68,285.820,196.172,1053.955,-2.67,23.27,83.71
1766236932109,7.97,-4.34,-73.32,211.113,171.758,1040.283,-5.17,22.77,89.96
1766236932119,7.78,-7.88,-69.29,422.051,192.754,1045.654,-5.11,14.77,85.08
1766236932129,6.23,-8.89,-64.85,224.297,90.703,972.412,-8.73,13.02,90.40
1766236932139,5.74,-8.95,-60.43,177.422,177.617,990.479,-12.92,13.77,93.77
1766236932149,4.41,-10.85,-56.17,307.305,97.539,961.182,-12.98,7.33,88.08
1766236932159,2.60,-9.55,-51.70,97.344,53.105,973.389,-16.11,10.14,91.65
1766236932169,2.52,-11.51,-47.86,354.668,178.594,1009.033,-17.92,5.89,84.71
1766236932179,2.39,-11.60,-44.23,237.480,200.078,1066.162,-21.99,5.64,81.46
1766236932189,2.89,-12.55,-40.96,360.039,292.363,1207.764,-21.86,4.45,76.52
1766236932199,2.80,-13.23,-37.88,356.621,241.094,1291.260,-19.80,1.46,70.02
1766236932209,2.81,-13.03,-35.08,283.379,235.723,1320.557,-17.67,1.52,64.27
1766236932221,2.82,-13.67,-32.72,347.832,167.363,1285.889,-7.67,-1.92,52.46
1766236932230,2.58,-13.85,-30.72,308.281,90.215,1255.127,-0.61,-1.54,41.77
1766236932239,2.00,-14.12,-29.29,313.652,-12.324,1212.646,8.52,-1.73,25.77
1766236932249,2.02,-13.93,-28.84,269.219,-20.137,1206.299,15.27,-2.80,5.84
1766236932259,2.03,-12.63,-29.32,180.352,-58.223,1190.186,18.76,2.77,-14.79
1766236932271,1.51,-9.16,-30.66,-12.031,-121.211,1121.826,19.70,12.45,-34.92
1766236932280,0.99,-5.85,-33.18,-29.609,-144.648,1087.646,22.64,20.08,-57.73
1766236932291,1.77,-3.56,-37.42,38.262,-29.902,1159.424,19.95,28.27,-88.23
1766236932300,3.01,-3.71,-43.91,196.465,-13.789,1046.631,27.83,23.83,-133.10
1766236932310,1.00,0.58,-52.20,-148.750,-230.098,957.764,28.08,26.89,-170.79
1766236932320,-2.97,3.83,-62.60,-149.238,-341.426,885.986,26.76,30.08,-203.16
1766236932331,-9.91,8.38,-74.85,-360.664,-543.086,806.396,17.26,40.77,-220.48
1766236932347,-17.23,7.37,-87.81,-59.883,-495.723,663.330,10.89,49.14,-228.73
1766236932350,-24.41,9.14,-100.39,-334.785,-610.469,669.189,0.08,61.14,-218.29
1766236932360,-31.04,11.68,-111.22,-433.906,-655.391,661.865,-10.86,76.52,-177.73
1766236932370,-33.24,10.63,-119.63,-150.703,-492.793,871.826,-18.30,83.89,-145.79
1766236932380,-32.47,6.47,-127.27,146.660,-337.520,928.467,-20.49,84.39,-137.85
1766236932390,-30.53,-0.38,-134.60,425.469,-229.609,793.701,-18.67,76.83,-128.79
1766236932400,-27.70,-7.84,-141.79,541.680,-169.062,709.717,-15.73,62.21,-122.98
1766236932410,-23.80,-16.11,-149.21,679.863,-89.961,675.049,-15.36,38.46,-125.60
1766236932420,-19.80,-23.91,-156.93,676.445,-79.219,606.689,-19.92,19.20,-129.41
1766236932430,-15.07,-30.24,-164.99,659.844,-46.504,625.244,-22.30,2.20,-127.73
1766236932440,-11.41,-30.89,-171.95,346.855,-94.355,713.623,-24.36,-9.55,-114.60
1766236932450,-6.23,-32.47,-179.45,440.117,36.016,807.373,-21.36,-28.36,-110.23
1766236932460,-0.08,-34.43,172.82,542.168,180.547,890.381,-17.99,-43.98,-101.48
1766236932470,5.79,-35.56,165.35,541.191,269.414,956.299,-17.67,-55.54,-91.73
1766236932480,9.32,-32.98,159.88,215.020,211.309,925.049,-15.86,-57.73,-72.92
1766236932490,13.61,-32.54,154.25,375.664,354.375,984.131,-10.80,-65.42,-66.10
1766236932500,15.84,-30.19,150.02,206.719,303.105,1024.658,-10.05,-63.48,-56.73
1766236932510,17.99,-29.25,145.69,309.258,353.398,1090.088,-7.80,-68.54,-58.35
1766236932519,18.61,-25.72,142.43,42.656,281.621,1079.834,-5.36,-63.54,-51.98
1766236932530,19.27,-21.38,139.65,-72.090,361.699,1186.279,-2.55,-52.42,-43.67
1766236932540,20.39,-18.56,136.97,28.008,400.273,1177.002,6.51,-47.17,-41.54
1766236932550,20.74,-14.13,135.12,-150.703,333.379,1102.783,11.70,-35.23,-33.54
1766236932560,20.91,-9.33,133.94,-243.477,370.977,1155.029,11.45,-20.67,-23.23
1766236932570,21.84,-6.21,133.17,-145.332,456.426,1174.072,16.01,-11.61,-13.79
1766236932579,23.13,-5.43,132.75,38.262,455.449,1018.311,16.45,-5.80,-6.16
1766236932589,24.84,-3.43,133.03,-85.273,546.270,1056.396,17.58,1.71,6.21
1766236932599,25.12,-2.81,134.13,7.500,443.242,1072.021,18.20,8.64,20.46
1766236932610,25.89,-4.46,135.71,203.301,489.141,1066.162,20.33,11.64,30.46
1766236932619,26.70,-6.87,137.64,301.445,501.836,1071.533,24.45,12.14,38.15
1766236932629,26.72,-8.74,140.10,269.707,440.312,1006.104,21.01,14.83,46.83
1766236932640,26.89,-11.44,142.89,394.219,451.055,991.455,23.26,19.02,51.96
1766236932650,26.73,-15.66,145.79,606.621,443.242,967.529,19.70,18.20,52.90
1766236932659,26.15,-20.35,148.17,629.570,391.973,898.193,15.27,-1.67,47.90
1766236932669,25.96,-26.54,150.24,980.156,374.883,778.076,14.64,8.64,36.77
1766236932679,25.69,-31.43,151.37,996.270,331.914,805.420,15.45,1.27,15.34
1766236932690,25.92,-34.89,151.16,1077.812,307.012,879.639,18.89,-0.98,-15.29
1766236932700,25.49,-36.13,150.62,933.770,191.777,960.693,23.33,-1.61,-39.79
1766236932710,24.43,-35.90,150.06,815.117,126.836,973.389,20.70,3.83,-52.79
1766236932719,23.36,-35.56,149.14,783.379,82.891,918.213,19.01,8.08,-62.85
1766236932730,22.32,-34.10,148.15,770.195,103.887,1022.705,17.01,16.95,-65.35
1766236932740,22.55,-33.49,146.46,834.160,187.871,956.299,16.76,20.52,-63.48
1766236932750,20.49,-35.89,146.68,886.406,-47.969,759.033,21.39,11.77,-46.85
1766236932760,13.51,-42.06,150.37,1001.641,-524.043,457.275,14.20,-8.23,-32.42
1766236932770,3.80,-49.03,156.81,1257.500,-939.082,301.514,10.08,-25.73,-25.04
1766236932780,-8.58,-54.19,165.62,1189.141,-1075.312,356.201,-3.17,-42.23,-29.42
1766236932790,-24.96,-56.72,177.81,727.227,-906.367,218.018,-23.86,-49.29,-27.92
1766236932800,-27.31,-50.15,178.01,181.328,-421.992,827.393,-39.67,-45.23,-23.85
1766236932810,-18.82,-42.26,170.66,-248.359,275.273,1523.682,-34.92,-29.17,-12.10
1766236932820,-10.37,-33.82,164.87,-431.953,656.621,1625.244,-21.80,-12.67,-1.66
1766236932830,-3.92,-23.73,161.88,-625.801,621.953,973.389,-26.17,2.58,18.33
1766236932840,0.84,-16.03,162.11,-270.820,497.441,1146.240,-6.61,15.52,43.65
1766236932850,2.26,-10.63,165.20,-125.312,225.957,1228.271,2.89,19.89,71.83
1766236932859,1.92,-11.24,169.87,320.488,37.969,1112.549,12.77,15.08,94.33
1766236932870,-1.14,-11.00,176.19,243.340,-209.590,1059.326,18.08,10.45,117.15
1766236932880,-4.58,-12.07,-176.89,377.129,-328.730,1096.436,21.76,1.58,128.52
1766236932890,-8.68,-11.51,-169.26,288.750,-428.340,1061.768,19.83,1.83,141.52
1766236932900,-11.78,-12.10,-161.98,395.195,-355.586,993.896,11.20,0.33,141.96
1766236932910,-15.20,-9.22,-155.07,117.852,-379.512,873.291,5.14,2.14,137.90
1766236932920,-16.27,-5.38,-149.10,6.523,-293.086,980.225,-0.42,4.02,130.84
1766236932930,-14.39,-3.07,-144.03,65.605,-103.633,1175.537,-2.11,9.20,118.21
1766236932940,-12.64,2.39,-139.16,-261.543,-94.844,1151.611,-4.17,19.02,113.27
1766236932950,-10.97,7.76,-134.26,-367.988,-113.398,1188.232,-4.36,25.39,110.52
1766236932960,-8.26,10.51,-129.42,-185.859,6.719,1184.814,-7.92,36.58,102.65
1766236932970,-6.38,14.74,-124.55,-338.203,-10.859,1190.674,-15.30,52.08,103.15
1766236932980,-4.57,16.09,-119.74,-128.242,0.859,1200.439,-16.42,58.21,97.58
1766236932989,-2.35,15.91,-114.98,9.453,86.797,1177.490,-18.30,64.39,91.65
1766236933000,-0.76,16.18,-110.34,-26.680,75.078,1191.650,-19.11,68.52,89.96
1766236933010,0.89,14.99,-105.78,112.969,123.418,1113.037,-21.30,71.71,85.58
1766236933020,2.25,15.00,-101.38,22.637,126.836,1172.119,-18.17,73.89,82.83
1766236933030,3.56,16.31,-96.62,-83.320,156.621,1233.643,-20.86,81.96,88.02
1766236933040,5.55,14.83,-91.81,162.773,245.000,1241.943,-17.30,79.14,84.83
1766236933050,7.14,13.00,-87.19,197.441,236.211,1193.115,-13.73,76.27,82.58
1766236933060,8.46,10.91,-82.57,231.621,237.188,1118.896,-12.61,75.14,83.08
1766236933069,8.85,7.45,-78.54,388.359,184.453,1107.178,-9.55,68.77,75.27
1766236933079,7.81,5.19,-74.71,280.449,75.566,1014.404,-11.73,64.71,73.96
1766236933089,6.71,2.34,-70.76,382.988,77.031,1056.396,-13.98,60.39,77.33
1766236933099,5.80,-2.03,-67.19,563.652,91.191,1035.400,-12.98,49.21,71.27
1766236933109,4.19,-5.29,-63.63,480.645,40.898,996.338,-15.67,42.27,70.52
1766236933119,2.29,-6.41,-59.88,335.137,17.461,1012.939,-18.80,39.58,74.52
1766236933129,1.15,-8.87,-56.29,476.250,75.078,1027.588,-21.86,32.52,74.27
1766236933140,0.72,-12.28,-53.29,562.188,129.277,997.314,-21.55,19.77,65.90
1766236933150,-0.03,-14.04,-50.30,445.488,114.629,1016.846,-24.55,14.20,65.83
1766236933160,0.11,-15.05,-47.45,404.473,197.637,1001.709,-26.86,13.77,69.08
1766236933170,0.71,-16.24,-44.84,467.461,263.555,1087.158,-26.05,10.89,67.27
1766236933180,0.77,-15.57,-42.16,318.047,230.352,1160.889,-26.67,10.27,66.33
1766236933190,0.08,-13.68,-39.24,217.949,171.758,1333.252,-26.99,11.83,67.15
1766236933200,-0.27,-13.19,-36.65,302.422,139.531,1232.178,-21.86,10.45,59.08
1766236933210,-0.58,-13.46,-34.42,336.602,100.469,1128.662,-17.99,9.02,50.65
1766236933219,-1.21,-14.44,-32.68,373.711,3.789,1082.764,-7.67,4.02,35.83
1766236933229,-0.37,-15.46,-31.90,367.852,70.195,1075.439,1.33,-1.86,21.21
1766236933239,0.80,-15.20,-31.83,257.500,76.543,1089.111,6.26,-4.55,6.34
1766236933249,1.99,-13.79,-32.75,157.891,78.496,1081.299,5.70,-1.86,-14.60
1766236933259,3.46,-10.96,-34.90,45.098,97.539,1102.295,7.58,6.20,-40.54
1766236933269,3.82,-4.93,-37.57,-224.434,38.945,1119.873,6.08,24.70,-55.60
1766236933279,4.32,-0.43,-41.55,-147.285,69.219,1158.447,8.20,33.96,-83.35
1766236933289,5.18,1.42,-47.23,40.703,93.633,1077.881,15.58,37.14,-118.98
1766236933299,3.95,3.06,-54.65,33.867,-48.457,1023.682,16.76,36.02,-152.23
1766236933310,0.19,5.59,-63.82,-63.789,-215.938,970.947,13.08,40.33,-179.91
1766236933320,-6.33,8.36,-74.59,-126.289,-387.324,850.342,6.39,53.71,-195.91
1766236933330,-15.44,12.49,-86.84,-311.348,-562.617,692.627,-0.67,71.02,-198.66
1766236933340,-24.11,15.57,-99.35,-408.027,-638.789,734.131,-7.11,87.27,-191.41
1766236933351,-30.74,17.45,-110.83,-424.141,-616.816,814.697,-13.48,102.08,-173.48
1766236933361,-33.96,16.31,-120.39,-172.676,-492.793,900.146,-17.49,111.52,-151.16
1766236933371,-34.06,10.30,-128.64,283.379,-350.703,864.502,-13.98,109.58,-136.16
1766236933381,-32.29,0.96,-136.55,751.641,-185.176,773.193,-15.61,97.27,-130.04
1766236933390,-29.89,-9.37,-144.38,968.438,-127.070,642.822,-16.36,75.14,-128.10
1766236933400,-26.00,-19.42,-152.39,978.691,-56.270,583.740,-16.67,49.83,-128.79
1766236933411,-21.98,-27.89,-160.10,810.234,-112.910,534.912,-14.98,26.14,-125.04
1766236933420,-17.13,-33.71,-167.74,634.453,-81.172,551.025,-16.55,5.89,-116.23
1766236933430,-11.02,-37.07,-175.77,582.695,-5.977,662.354,-16.11,-11.98,-108.35
1766236933440,-4.61,-40.00,176.31,670.098,91.680,732.178,-17.36,-26.17,-96.29
1766236933450,0.10,-40.51,169.94,479.668,62.383,724.365,-15.17,-38.54,-81.17
1766236933460,5.11,-40.85,163.61,509.941,156.133,801.025,-13.11,-49.86,-72.98
1766236933470,8.70,-39.25,158.48,374.688,184.453,861.572,-15.80,-54.42,-59.73
1766236933480,12.64,-38.90,153.19,475.762,280.156,906.982,-13.48,-61.61,-56.10
1766236933490,14.64,-35.22,149.41,191.582,273.320,987.549,-15.55,-59.17,-45.48
1766236933501,16.83,-33.10,145.64,292.656,355.352,1054.932,-12.61,-60.73,-42.48
1766236933510,18.94,-31.03,141.85,262.871,384.160,1061.279,-8.98,-62.92,-44.79
1766236933520,19.62,-26.27,139.20,-24.727,347.539,1056.885,-9.30,-54.54,-36.54
1766236933530,21.08,-23.35,136.57,93.438,480.840,1198.486,-1.24,-51.29,-31.60
1766236933540,23.19,-21.39,133.81,143.242,531.133,1189.209,10.45,-51.92,-32.98
1766236933550,24.34,-18.26,131.92,-6.660,452.031,1126.709,16.51,-44.61,-25.42
1766236933560,24.67,-15.48,131.12,-9.590,440.312,1137.939,15.83,-31.55,-8.98
1766236933570,25.64,-13.28,130.77,-10.566,497.930,1122.803,22.08,-26.80,2.52
1766236933580,26.01,-11.14,131.09,-48.652,454.961,1138.916,26.39,-21.17,12.40
1766236933590,26.34,-8.50,131.96,-125.801,440.801,1071.533,26.39,-13.42,22.15
1766236933600,26.91,-7.55,133.33,1.641,473.516,1101.318,29.76,-4.42,31.21
1766236933610,27.13,-6.43,135.54,-20.820,495.000,1168.701,28.14,6.52,44.71
1766236933620,27.78,-7.53,137.82,178.887,487.188,1104.248,34.01,8.70,46.40
1766236933630,27.72,-7.85,140.54,139.336,416.387,1095.947,37.51,15.39,50.15
1766236933640,27.34,-8.03,143.90,153.008,369.512,1043.701,38.20,26.45,58.08
1766236933670,26.70,-11.78,147.60,465.996,310.430,932.373,36.08,30.14,61.96
1766236933672,24.67,-17.59,151.52,654.961,157.109,779.541,30.70,25.77,58.15
1766236933675,21.55,-24.42,155.58,878.105,40.410,727.295,23.51,17.83,50.65
1766236933679,19.96,-31.36,157.99,1218.438,91.680,755.615,22.08,6.27,25.40
1766236933690,18.63,-37.79,158.98,1301.445,-23.066,677.002,21.83,-2.92,-9.10
1766236933700,14.53,-39.56,161.26,839.043,-199.824,823.486,21.58,-0.04,-26.54
1766236933710,10.72,-37.91,163.16,653.496,-196.406,1001.709,18.20,7.08,-31.23
1766236933720,5.68,-35.26,165.71,490.410,-303.828,932.861,14.77,13.39,-27.29
1766236933730,0.34,-34.52,168.12,589.531,-386.836,806.396,9.02,18.89,-25.48
1766236933740,-4.19,-35.79,169.85,838.555,-422.969,757.568,1.08,26.83,-23.98
1766236933750,-6.93,-39.06,170.22,1070.977,-359.004,686.279,-4.49,20.58,-29.29
1766236933760,-12.33,-42.32,172.30,982.109,-517.207,562.256,-14.11,8.33,-27.98
1766236933770,-19.42,-43.78,175.67,879.570,-652.949,652.588,-26.61,-6.73,-20.54
1766236933780,-26.08,-41.24,179.26,470.391,-630.488,709.229,-25.49,-17.30,-8.79
1766236933790,-27.46,-36.38,179.45,254.570,-380.977,851.807,-32.55,-16.67,3.27
1766236933800,-22.61,-29.33,176.61,-51.094,32.598,1192.139,-33.42,-9.36,16.52
1766236933810,-16.34,-21.31,174.55,-270.332,347.539,1182.373,-28.42,4.89,34.33
1766236933820,-9.72,-14.29,174.10,-273.262,584.355,1266.357,-22.17,15.70,49.21
1766236933830,-3.33,-7.15,175.61,-404.121,718.633,1325.439,-11.92,27.83,65.27
1766236933840,3.29,-3.63,178.60,-84.297,840.703,1364.502,-2.99,35.96,77.77
1766236933850,9.34,-3.17,-177.58,125.664,747.441,1232.666,11.14,30.95,85.40
1766236933860,13.42,-6.84,-173.76,433.281,544.805,1078.857,20.33,17.58,84.71
1766236933870,12.84,-8.19,-169.20,199.883,147.832,1014.404,23.01,11.45,91.52
1766236933880,8.06,-8.10,-163.58,103.691,-194.941,954.346,21.33,9.27,101.58
1766236933890,2.93,-10.79,-157.65,391.777,-326.777,987.549,18.26,7.70,105.46
1766236933900,-3.53,-8.80,-151.04,96.855,-484.004,967.529,10.89,13.45,116.21
1766236933910,-7.66,-6.54,-145.06,89.043,-394.648,1035.889,4.51,14.33,117.08
1766236933920,-10.38,-3.73,-139.81,40.215,-343.867,1057.373,-2.36,19.58,110.96
1766236933930,-11.30,-0.30,-135.36,-27.656,-234.004,1082.275,-8.42,28.95,101.58
1766236933940,-11.12,4.29,-131.45,-162.422,-149.531,1074.951,-14.17,38.83,93.33
