Timestamp,Roll,Pitch,Yaw,AccX,AccY,AccZ,GyroX,GyroY,GyroZ
1766218580251,-0.76,-1.37,159.79,22.061,-13.018,975.371,0.12,0.12,0.11
1766218580254,-0.77,-1.38,159.80,25.967,-13.018,978.301,-0.20,0.43,0.24
1766218580257,-0.80,-1.34,159.80,20.596,-14.971,979.277,-0.20,-0.07,0.05
1766218580263,-0.81,-1.43,159.94,24.014,-13.506,968.047,-0.13,-0.07,-0.14
1766218580273,-0.82,-1.42,159.94,23.037,-14.971,974.883,0.24,-0.13,-0.08
1766218580283,-0.81,-1.44,159.95,25.479,-13.994,978.301,0.18,-0.25,0.24
1766218580293,-0.82,-1.41,159.95,23.037,-14.482,978.789,-0.07,0.25,-0.08
1766218580303,-0.78,-1.42,159.18,23.037,-13.018,978.789,0.12,-0.19,-15.89
1766218580313,-0.80,-1.36,159.17,19.619,-13.994,969.512,-0.13,0.06,-0.20
1766218580323,-0.78,-1.37,159.18,24.014,-12.529,973.418,0.05,-0.00,0.05
1766218580333,-0.83,-1.39,159.19,25.479,-16.436,970.977,-0.13,0.12,0.24
1766218580343,-0.78,-1.40,159.19,23.525,-11.064,970.488,0.24,-0.13,0.11
1766218580353,-0.77,-1.37,159.21,22.549,-12.529,979.766,-0.07,0.06,0.30
1766218580363,-0.79,-1.31,159.22,19.619,-14.971,978.301,-0.01,0.25,0.24
1766218580373,-0.79,-1.34,159.21,24.014,-13.506,979.277,-0.01,-0.07,-0.20
1766218580383,-0.79,-1.31,159.22,22.061,-13.506,975.371,-0.01,0.31,0.11
1766218580393,-0.79,-1.32,159.23,23.037,-13.506,967.559,0.05,0.12,0.24
1766218580403,-0.77,-1.35,159.23,24.014,-10.576,969.512,-0.32,-0.32,0.05
1766218580413,-0.78,-1.37,159.23,24.502,-13.506,970.488,-0.13,-0.07,0.05
1766218580423,-0.82,-1.36,159.23,22.549,-15.459,979.277,-0.26,-0.07,0.05
1766218580433,-0.80,-1.34,159.24,20.596,-13.018,980.742,0.24,-0.13,0.11
1766218580443,-0.84,-1.35,159.24,23.037,-16.924,972.930,0.05,-0.19,-0.01
1766218580453,-0.82,-1.35,159.24,23.525,-12.041,982.207,-0.32,0.06,0.05
1766218580463,-0.79,-1.34,159.24,23.037,-12.041,971.465,0.12,0.12,-0.01
1766218580473,-0.80,-1.37,159.24,24.014,-13.994,970.977,0.05,-0.25,0.05
1766218580483,-0.79,-1.43,159.25,26.943,-13.506,974.395,0.18,-0.19,0.11
1766218580494,-0.78,-1.40,159.27,22.061,-13.018,968.535,-0.01,-0.07,0.43
1766218580503,-0.75,-1.39,159.28,23.525,-10.576,972.930,-0.07,0.12,0.24
1766218580513,-0.75,-1.42,159.28,25.479,-11.553,975.859,-0.32,-0.07,-0.01
1766218580524,-0.77,-1.40,159.29,22.061,-13.994,972.441,-0.01,-0.19,0.17
1766218580533,-0.78,-1.39,159.30,23.525,-13.506,977.324,-0.26,0.06,0.17
1766218580543,-0.79,-1.40,159.30,24.014,-13.506,970.977,-0.07,-0.07,0.11
1766218580553,-0.79,-1.41,159.29,24.990,-13.018,970.000,-0.20,0.06,-0.14
1766218580563,-0.76,-1.41,159.30,23.037,-11.064,978.301,0.05,-0.32,0.24
1766218580573,-0.76,-1.41,159.30,23.525,-12.529,971.953,-0.07,-0.07,-0.08
1766218580583,-0.76,-1.40,159.29,23.525,-12.041,981.719,-0.32,0.06,-0.20
1766218580593,-0.80,-1.37,159.29,23.037,-14.971,978.789,-0.38,0.25,-0.01
1766218580603,-0.84,-1.38,159.30,23.525,-15.459,970.977,-0.32,-0.07,0.11
1766218580613,-0.83,-1.42,159.30,26.455,-13.506,971.465,0.05,-0.07,0.05
1766218580623,-0.83,-1.44,159.31,26.455,-13.506,969.512,-0.20,0.12,0.30
1766218580633,-0.85,-1.44,159.33,23.525,-14.971,970.488,-0.13,-0.13,0.24
1766218580643,-0.83,-1.46,159.33,25.967,-13.018,974.883,0.05,-0.19,0.11
1766218580653,-0.86,-1.46,159.33,24.014,-15.947,974.395,-0.26,-0.07,0.05
1766218580663,-0.85,-1.42,159.33,21.084,-13.506,977.812,-0.13,-0.38,-0.08
1766218580673,-0.83,-1.36,159.34,20.596,-12.529,979.277,-0.07,0.25,0.17
1766218580683,-0.82,-1.36,159.34,23.037,-13.506,972.441,0.05,0.12,0.11
1766218580693,-0.78,-1.32,159.35,21.084,-11.064,978.301,0.05,0.12,0.11
1766218580703,-0.78,-1.35,159.35,24.990,-13.506,971.953,0.05,-0.00,0.11
1766218580713,-0.78,-1.38,159.35,24.502,-13.506,972.441,-0.01,-0.19,-0.08
1766218580723,-0.79,-1.40,159.35,25.479,-13.506,981.719,-0.13,0.06,0.05
1766218580733,-0.79,-1.39,159.36,22.549,-13.018,974.395,-0.01,-0.13,0.17
1766218580743,-0.79,-1.41,159.37,25.479,-13.506,972.441,-0.13,-0.00,0.24
1766218580753,-0.84,-1.39,159.37,22.549,-14.971,974.395,-0.51,-0.00,-0.01
1766218580763,-0.82,-1.33,159.38,20.107,-12.041,970.977,-0.13,0.31,0.30
1766218580773,-0.84,-1.35,158.64,24.502,-17.412,972.441,0.12,0.37,-15.64
1766218580783,-0.84,-1.37,158.63,25.479,-14.482,970.488,0.05,0.25,-0.01
1766218580793,-0.83,-1.37,158.63,22.061,-13.994,974.883,0.12,-0.44,-0.20
1766218580803,-0.80,-1.39,158.62,23.525,-11.553,978.789,-0.01,-0.25,-0.08
1766218580813,-0.82,-1.34,158.62,20.107,-15.947,974.395,0.18,0.12,-0.08
1766218580823,-0.83,-1.34,158.62,22.061,-15.459,979.766,0.12,-0.38,0.05
1766218580833,-0.83,-1.35,158.63,23.037,-13.994,971.465,-0.01,-0.07,0.17
1766218580843,-0.83,-1.35,158.63,23.037,-13.506,973.418,-0.13,0.06,-0.08
1766218580853,-0.81,-1.36,158.62,23.525,-12.041,969.512,-0.20,-0.13,-0.08
1766218580863,-0.80,-1.36,158.62,24.014,-11.553,970.488,-0.26,0.18,0.05
1766218580873,-0.80,-1.35,158.61,21.084,-13.994,970.488,-0.07,-0.19,-0.26
1766218580883,-0.79,-1.32,158.62,21.084,-13.018,973.906,0.12,0.06,0.24
1766218580893,-0.78,-1.36,158.63,25.479,-11.553,977.812,-0.32,-0.07,0.17
1766218580903,-0.74,-1.35,158.63,23.037,-10.576,978.301,0.12,0.18,0.11
1766218580913,-0.75,-1.37,158.64,23.525,-12.529,975.371,-0.13,-0.32,0.05
1766218580923,-0.77,-1.40,158.62,25.479,-14.482,976.348,-0.01,-0.07,-0.32
1766218580933,-0.78,-1.41,158.62,23.525,-13.018,970.977,-0.20,-0.38,-0.14
1766218580943,-0.77,-1.40,158.61,22.549,-12.529,968.047,-0.07,-0.13,-0.14
1766218580953,-0.75,-1.40,158.61,24.502,-12.041,975.859,0.05,0.12,0.05
1766218580963,-0.74,-1.38,158.62,23.037,-11.553,970.977,0.05,0.18,0.11
1766218580973,-0.72,-1.37,158.61,21.572,-11.553,973.418,-0.01,-0.19,-0.08
1766218580983,-0.69,-1.36,158.63,23.037,-10.576,980.254,0.18,-0.00,0.36
1766218580993,-0.70,-1.36,158.64,24.014,-12.529,975.371,-0.01,0.31,0.17
1766218581003,-0.75,-1.34,158.65,22.549,-14.971,978.301,-0.13,0.18,0.24
1766218581013,-0.75,-1.35,158.65,24.502,-13.018,974.883,-0.01,0.25,-0.08
1766218581023,-0.73,-1.37,158.65,24.990,-11.064,973.418,-0.07,-0.00,0.17
1766218581033,-0.76,-1.38,158.66,24.502,-15.459,978.789,0.12,0.18,0.11
1766218581043,-0.75,-1.38,158.64,23.525,-11.553,971.465,-0.20,0.06,-0.39
1766218581053,-0.76,-1.34,158.64,22.061,-13.018,977.324,-0.20,0.25,0.05
1766218581063,-0.79,-1.36,158.65,22.061,-14.482,976.836,-0.07,-0.57,0.11
1766218581073,-0.80,-1.36,158.64,23.037,-12.529,969.512,-0.45,0.06,-0.20
1766218581083,-0.81,-1.39,158.62,24.990,-13.994,979.277,-0.20,-0.32,-0.32
1766218581093,-0.79,-1.40,158.63,24.990,-11.553,970.977,-0.07,0.12,0.05
1766218581103,-0.79,-1.42,158.63,24.014,-13.506,972.441,-0.01,-0.25,0.05
1766218581113,-0.76,-1.42,158.63,23.525,-12.041,975.859,0.12,-0.32,-0.01
1766218581123,-0.76,-1.39,158.64,21.084,-12.529,975.371,-0.01,-0.07,0.24
1766218581133,-0.80,-1.37,158.64,22.061,-16.436,979.277,0.12,-0.19,0.05
1766218581143,-0.78,-1.40,158.64,24.502,-11.553,978.301,-0.20,-0.32,0.05
1766218581153,-0.78,-1.39,158.63,22.549,-12.041,976.836,-0.38,-0.13,-0.20
1766218581163,-0.72,-1.39,158.64,23.525,-10.088,976.348,0.43,-0.07,0.05
1766218581173,-0.74,-1.41,158.63,25.479,-13.994,968.535,0.12,0.12,-0.08
1766218581183,-0.73,-1.42,158.64,24.990,-12.529,970.000,0.05,0.06,0.11
1766218581193,-0.72,-1.44,158.65,24.990,-12.529,973.906,0.24,-0.19,0.30
1766218581203,-0.75,-1.45,158.65,24.014,-15.459,976.836,0.18,-0.32,-0.01
1766218581213,-0.76,-1.40,158.65,20.107,-12.529,976.836,-0.26,-0.19,-0.01
1766218581223,-0.75,-1.35,158.67,20.596,-12.041,979.277,-0.01,-0.00,0.36
1766218581233,-0.74,-1.35,158.66,22.549,-11.064,970.488,-0.20,-0.00,-0.14
1766218581243,-0.76,-1.37,158.67,24.502,-13.018,973.418,-0.32,-0.00,0.24
1766218581253,-0.74,-1.39,158.68,24.990,-12.529,970.000,0.24,-0.00,0.11
1766218581263,-0.71,-1.37,158.68,24.014,-10.088,971.465,0.05,0.50,0.05
1766218581273,-0.70,-1.40,158.67,25.967,-11.064,978.789,-0.13,0.12,-0.26
1766218581283,-0.73,-1.38,158.66,22.061,-13.506,972.441,-0.13,-0.07,-0.08
1766218581293,-0.77,-1.37,158.68,23.037,-14.971,980.254,-0.26,0.06,0.36
1766218581303,-0.75,-1.34,158.69,20.596,-12.529,974.883,0.30,-0.07,0.05
1766218581313,-0.76,-1.33,158.69,22.549,-13.018,967.070,-0.07,0.12,0.11
1766218581323,-0.76,-1.35,158.69,23.525,-13.018,972.441,-0.01,-0.19,-0.08
1766218581333,-0.79,-1.36,158.69,23.525,-15.459,973.418,-0.01,-0.07,0.11
1766218581343,-0.80,-1.42,158.69,26.455,-14.971,972.441,0.18,-0.32,-0.08
1766218581353,-0.80,-1.40,158.69,22.549,-13.506,976.348,-0.07,-0.13,-0.01
1766218581363,-0.82,-1.43,158.69,24.990,-14.971,973.418,-0.07,-0.25,0.05
1766218581373,-0.85,-1.42,158.69,22.549,-14.971,979.766,-0.32,-0.32,-0.08
1766218581383,-0.82,-1.41,158.70,23.525,-12.041,974.395,-0.01,-0.07,0.17
1766218581393,-0.81,-1.41,158.71,22.549,-11.553,964.629,-0.32,-0.32,0.17
1766218581403,-0.79,-1.42,158.71,24.990,-12.529,974.395,-0.07,0.06,0.05
1766218581413,-0.78,-1.46,158.72,26.455,-12.529,968.047,-0.01,-0.25,0.24
1766218581423,-0.78,-1.45,158.72,24.014,-13.506,972.930,0.12,0.06,0.05
1766218581433,-0.79,-1.46,158.73,24.502,-13.506,973.906,-0.26,-0.25,0.17
1766218581443,-0.78,-1.42,158.74,22.061,-12.529,976.836,0.12,0.12,0.17
1766218581453,-0.77,-1.41,158.75,23.525,-12.041,978.301,-0.26,-0.13,0.30
1766218581463,-0.80,-1.37,158.76,20.596,-15.459,977.324,0.12,-0.07,0.24
1766218581473,-0.79,-1.41,158.76,24.990,-13.018,973.418,0.05,-0.32,-0.01
1766218581483,-0.81,-1.43,158.76,25.479,-13.994,969.023,-0.26,-0.00,-0.14
1766218581493,-0.81,-1.43,158.76,24.502,-13.506,970.000,-0.20,0.06,0.11
1766218581503,-0.80,-1.44,158.76,25.967,-13.506,970.000,0.18,0.18,-0.14
1766218581513,-0.80,-1.42,158.75,23.037,-13.018,970.977,-0.07,0.06,-0.20
1766218581523,-0.83,-1.43,158.74,24.990,-16.436,976.836,0.12,0.06,-0.08
1766218581533,-0.83,-1.41,158.75,22.061,-13.994,980.254,-0.07,-0.32,0.11
1766218581543,-0.81,-1.42,158.75,24.014,-13.018,974.395,-0.01,-0.19,0.11
1766218581553,-0.83,-1.42,158.75,25.967,-14.482,981.230,-0.13,0.43,-0.08
1766218581563,-0.84,-1.43,158.74,24.502,-14.971,974.395,-0.13,-0.25,-0.20
1766218581573,-0.83,-1.44,158.75,24.014,-13.994,971.953,0.12,-0.13,0.17
1766218581583,-0.83,-1.40,158.76,23.037,-13.994,974.883,-0.01,0.25,0.24
1766218581593,-0.81,-1.45,158.76,26.943,-11.553,969.023,-0.13,-0.07,0.05
1766218581603,-0.83,-1.45,158.76,24.990,-15.459,973.906,-0.01,-0.00,-0.08
1766218581613,-0.80,-1.47,158.77,24.502,-11.553,973.906,-0.01,-0.38,0.24
1766218581623,-0.81,-1.42,158.78,21.084,-13.994,971.465,-0.13,-0.07,0.24
1766218581633,-0.78,-1.42,158.77,23.525,-11.553,978.301,-0.01,-0.25,-0.14
1766218581643,-0.80,-1.43,158.78,23.525,-14.971,971.465,0.05,-0.25,0.05
1766218581653,-0.78,-1.44,158.79,24.502,-12.041,973.418,-0.01,-0.25,0.17
1766218581663,-0.81,-1.42,158.78,23.525,-15.459,976.836,-0.01,0.18,-0.08
1766218581673,-0.81,-1.43,158.79,24.990,-13.018,970.000,-0.26,-0.00,0.17
1766218581683,-0.77,-1.44,158.78,24.502,-11.064,973.906,0.05,-0.19,-0.14
1766218581693,-0.77,-1.42,158.79,24.014,-12.529,984.160,-0.07,0.18,0.17
1766218581703,-0.77,-1.42,158.80,24.014,-13.018,973.418,-0.13,-0.07,0.11
1766218581713,-0.76,-1.37,158.80,22.061,-13.506,978.789,0.24,0.37,0.05
1766218581723,-0.79,-1.40,158.80,24.990,-14.971,971.953,0.05,-0.19,0.11
1766218581733,-0.77,-1.45,158.80,27.432,-12.529,968.535,0.18,0.06,-0.01
1766218581743,-0.80,-1.43,158.80,23.525,-15.947,971.465,0.12,0.06,-0.08
1766218581753,-0.80,-1.43,158.80,24.502,-14.482,971.953,0.12,0.12,-0.08
1766218581763,-0.79,-1.38,158.80,20.596,-13.018,977.812,0.05,-0.13,-0.01
1766218581773,-0.76,-1.38,158.78,23.037,-10.576,977.324,-0.20,-0.00,-0.26
1766218581783,-0.81,-1.39,158.79,24.014,-16.436,976.348,-0.13,-0.19,0.05
1766218581793,-0.81,-1.41,158.79,24.502,-13.018,974.883,-0.13,-0.13,0.11
1766218581803,-0.81,-1.42,158.80,24.014,-13.994,970.000,0.05,-0.19,0.11
1766218581813,-0.81,-1.40,158.80,22.549,-13.018,969.023,-0.20,-0.13,0.05
1766218581823,-0.81,-1.41,158.80,24.502,-13.994,973.418,-0.01,0.12,-0.08
1766218581833,-0.83,-1.43,158.79,24.502,-14.482,970.977,-0.26,-0.32,-0.14
1766218581843,-0.84,-1.43,158.81,24.014,-14.482,977.324,-0.07,-0.19,0.36
1766218581853,-0.81,-1.41,158.82,21.572,-12.529,977.812,0.24,-0.25,0.17
1766218581863,-0.82,-1.38,158.83,22.061,-14.482,975.371,-0.07,0.06,0.24
1766218581873,-0.79,-1.39,158.84,24.990,-12.041,975.371,0.05,0.06,0.24
1766218581883,-0.80,-1.39,158.83,24.014,-13.994,973.906,0.05,0.06,-0.14
1766218581893,-0.80,-1.42,158.83,24.502,-13.018,969.023,-0.20,-0.25,0.05
1766218581903,-0.77,-1.45,158.85,26.455,-13.018,976.348,0.37,-0.13,0.24
1766218581913,-0.79,-1.42,158.85,22.549,-13.994,970.000,-0.07,-0.00,0.11
1766218581923,-0.78,-1.38,158.85,20.596,-13.018,972.441,0.12,0.06,0.05
1766218581933,-0.77,-1.37,158.85,22.549,-12.529,975.859,-0.07,-0.13,-0.08
1766218581943,-0.78,-1.36,158.86,23.037,-14.482,972.930,0.12,0.06,0.11
1766218581953,-0.78,-1.36,158.85,24.014,-12.529,978.789,-0.20,0.25,-0.01
1766218581963,-0.78,-1.37,158.87,22.061,-13.018,972.930,0.05,-0.44,0.36
1766218581973,-0.79,-1.36,158.86,22.549,-13.994,969.023,-0.07,-0.13,-0.20
1766218581983,-0.75,-1.34,158.86,22.061,-10.576,981.230,0.12,0.25,-0.01
1766218581993,-0.75,-1.33,158.86,22.549,-12.529,968.047,-0.20,0.18,0.05
1766218582003,-0.76,-1.32,158.85,22.549,-13.506,979.277,0.05,-0.00,-0.20
1766218582013,-0.79,-1.36,158.86,25.967,-15.459,980.742,0.05,-0.00,0.17
1766218582023,-0.77,-1.39,158.87,24.502,-12.041,972.930,0.05,-0.25,0.05
1766218582033,-0.78,-1.38,158.87,23.037,-13.506,976.836,-0.13,0.12,0.05
1766218582043,-0.78,-1.39,158.88,23.037,-13.018,969.023,-0.01,-0.32,0.30
1766218582053,-0.78,-1.38,158.89,23.525,-14.482,969.023,0.30,0.06,0.17
1766218582063,-0.75,-1.39,158.89,24.502,-11.064,971.953,-0.07,0.06,-0.01
1766218582073,-0.77,-1.42,158.90,25.967,-14.482,973.418,0.12,0.06,0.30
1766218582083,-0.76,-1.39,158.90,22.549,-13.506,979.766,0.24,0.18,-0.08
1766218582093,-0.80,-1.41,158.91,24.990,-15.459,979.277,-0.13,-0.19,0.11
1766218582103,-0.80,-1.40,158.91,23.037,-14.482,972.441,0.30,0.06,0.05
1766218582113,-0.82,-1.38,158.91,23.525,-14.971,976.348,-0.07,0.18,0.05
1766218582123,-0.81,-1.36,158.91,22.549,-13.994,969.023,0.18,0.25,-0.14
1766218582133,-0.80,-1.37,158.92,24.014,-13.018,967.070,0.12,-0.00,0.24
1766218582143,-0.80,-1.36,158.93,23.037,-14.482,978.301,0.05,0.06,0.24
1766218582153,-0.76,-1.39,158.92,23.525,-10.576,971.953,-0.01,-0.38,-0.20
1766218582163,-0.76,-1.37,158.92,21.084,-13.018,979.277,0.12,-0.32,-0.01
1766218582173,-0.74,-1.37,158.93,24.014,-12.041,979.766,0.05,0.12,0.17
1766218582183,-0.75,-1.39,158.92,24.014,-13.994,978.789,0.24,-0.25,-0.08
1766218582193,-0.76,-1.39,158.92,24.014,-14.482,974.883,0.12,-0.07,-0.01
1766218582203,-0.74,-1.39,158.92,24.014,-12.041,973.906,0.30,0.06,-0.01
1766218582213,-0.73,-1.42,158.92,24.014,-12.529,974.395,0.05,-0.38,-0.14
1766218582223,-0.78,-1.46,158.92,27.432,-15.947,968.535,0.05,-0.07,-0.01
1766218582233,-0.80,-1.43,158.93,21.572,-14.971,974.395,-0.13,-0.32,0.24
1766218582243,-0.83,-1.43,158.93,24.014,-15.947,973.418,-0.01,-0.07,0.11
1766218582253,-0.82,-1.42,158.95,23.037,-12.529,977.812,-0.13,-0.13,0.24
1766218582263,-0.82,-1.41,158.94,23.525,-13.994,980.742,-0.07,-0.00,-0.08
1766218582273,-0.81,-1.41,158.94,23.525,-13.018,975.371,-0.13,-0.25,0.05
1766218582283,-0.78,-1.41,158.94,24.502,-12.529,970.000,0.30,0.31,-0.08
1766218582293,-0.77,-1.44,158.95,26.455,-12.529,968.047,-0.01,0.06,0.11
1766218582303,-0.79,-1.44,158.94,23.525,-13.994,969.512,-0.01,-0.25,-0.08
1766218582313,-0.82,-1.41,158.94,22.061,-14.971,971.465,-0.20,-0.13,-0.01
1766218582323,-0.83,-1.43,158.95,24.990,-15.459,980.254,0.05,-0.07,0.11
1766218582333,-0.83,-1.41,158.95,23.525,-13.994,976.836,-0.01,0.18,0.05
1766218582343,-0.83,-1.36,158.95,21.084,-13.994,978.301,-0.01,0.12,0.05
1766218582353,-0.83,-1.40,158.95,25.479,-13.506,973.418,-0.20,-0.25,-0.08
1766218582363,-0.85,-1.40,158.96,24.502,-14.482,971.465,-0.26,0.18,0.24
1766218582373,-0.83,-1.42,158.96,24.502,-12.529,970.000,-0.13,-0.19,0.11
1766218582383,-0.81,-1.42,158.95,23.525,-13.506,972.441,0.18,-0.13,-0.39
1766218582393,-0.83,-1.40,158.94,22.549,-14.971,972.441,-0.07,-0.13,-0.14
1766218582403,-0.83,-1.38,158.94,23.037,-14.482,978.301,0.18,0.18,-0.01
1766218582413,-0.80,-1.37,158.94,22.061,-12.041,980.742,0.05,-0.19,0.11
1766218582423,-0.80,-1.32,158.94,19.619,-13.018,979.766,-0.20,0.06,-0.08
1766218582433,-0.81,-1.36,158.94,24.502,-13.994,974.883,-0.07,-0.25,-0.01
1766218582443,-0.79,-1.34,158.93,22.061,-13.018,972.441,0.05,-0.00,-0.26
1766218582453,-0.80,-1.40,158.93,26.455,-12.529,969.512,-0.45,-0.19,0.11
1766218582463,-0.79,-1.41,158.94,24.502,-13.506,970.000,0.24,-0.13,0.24
1766218582473,-0.84,-1.39,158.95,22.061,-16.436,970.488,-0.20,-0.00,0.17
1766218582483,-0.84,-1.40,158.96,24.014,-14.482,976.348,0.05,-0.19,0.11
1766218582493,-0.83,-1.38,158.96,22.549,-12.529,975.859,-0.26,-0.00,0.11
1766218582503,-0.81,-1.37,158.97,22.061,-13.506,979.766,0.18,-0.07,0.05
1766218582513,-0.82,-1.38,158.97,23.525,-13.506,976.348,-0.26,-0.25,0.05
1766218582523,-0.80,-1.40,158.97,25.967,-13.506,975.371,0.37,0.12,0.11
1766218582533,-0.79,-1.38,158.97,22.061,-13.018,973.906,0.05,-0.07,-0.01
1766218582543,-0.79,-1.40,158.96,24.502,-12.529,970.000,-0.32,-0.07,-0.32
1766218582553,-0.81,-1.38,158.96,23.037,-14.971,973.418,0.05,0.12,0.11
1766218582563,-0.79,-1.40,158.96,23.525,-12.529,973.906,-0.01,-0.32,-0.01
1766218582573,-0.78,-1.36,158.95,21.084,-12.529,978.789,0.05,0.06,-0.26
1766218582583,-0.75,-1.32,158.95,22.061,-11.553,982.207,-0.01,0.43,0.05
1766218582593,-0.79,-1.35,158.95,24.502,-15.459,977.812,-0.07,-0.19,-0.08
1766218582603,-0.78,-1.36,158.95,23.525,-12.041,970.977,-0.26,-0.00,0.05
1766218582613,-0.80,-1.36,158.96,22.061,-14.482,972.441,-0.01,-0.19,0.24
1766218582623,-0.82,-1.38,158.96,24.014,-15.459,970.977,0.05,-0.25,-0.01
1766218582633,-0.85,-1.40,158.97,24.502,-16.436,972.930,-0.01,-0.07,0.11
1766218582643,-0.85,-1.43,158.98,25.967,-14.482,978.301,-0.07,-0.13,0.30
1766218582653,-0.84,-1.44,158.98,24.014,-13.506,979.277,-0.07,-0.38,-0.01
1766218582663,-0.84,-1.44,158.98,24.014,-13.994,976.836,-0.01,-0.07,-0.01
1766218582673,-0.82,-1.44,158.98,24.502,-12.529,974.883,-0.01,-0.07,0.05
1766218582683,-0.81,-1.43,158.98,24.014,-13.018,969.512,-0.07,-0.00,-0.01
1766218582693,-0.82,-1.44,158.99,24.502,-13.994,969.512,-0.13,-0.07,0.24
1766218582703,-0.82,-1.45,159.00,25.967,-13.018,973.418,-0.20,0.12,0.24
1766218582713,-0.82,-1.42,159.01,23.037,-13.018,973.418,-0.26,0.12,0.11
1766218582723,-0.83,-1.46,159.00,26.455,-15.459,978.789,0.05,-0.19,-0.20
1766218582733,-0.80,-1.47,159.00,24.990,-11.553,980.742,0.05,-0.25,-0.08
1766218582743,-0.78,-1.46,159.00,24.502,-12.041,975.371,-0.13,0.12,0.11
1766218582753,-0.77,-1.46,159.00,24.014,-13.018,976.348,0.12,-0.38,0.05
1766218582763,-0.81,-1.47,159.00,24.014,-16.436,970.977,0.12,-0.32,-0.01
1766218582773,-0.81,-1.44,159.01,23.037,-14.971,970.488,0.30,0.06,0.05
1766218582783,-0.80,-1.42,159.00,23.037,-12.529,967.070,-0.13,-0.00,-0.20
1766218582793,-0.79,-1.44,159.00,25.479,-12.041,972.930,-0.13,0.06,0.11
1766218582803,-0.79,-1.42,159.00,23.037,-13.994,975.371,-0.01,-0.07,-0.01
1766218582813,-0.79,-1.42,159.02,24.502,-12.529,978.301,-0.20,0.06,0.30
1766218582823,-0.77,-1.35,159.02,18.154,-13.018,980.742,0.24,-0.25,0.05
1766218582833,-0.80,-1.35,159.02,22.061,-13.994,978.789,-0.32,-0.13,-0.08
1766218582843,-0.81,-1.35,159.01,22.549,-14.971,973.418,0.05,-0.25,-0.08
1766218582853,-0.82,-1.38,159.00,24.990,-13.994,972.930,-0.20,-0.00,-0.20
1766218582863,-0.81,-1.41,159.01,25.479,-12.529,967.070,-0.07,-0.19,0.24
1766218582873,-0.80,-1.44,159.01,24.990,-12.529,969.023,-0.07,-0.19,-0.14
1766218582883,-0.80,-1.45,159.01,24.014,-13.994,973.418,0.05,-0.32,-0.01
1766218582893,-0.76,-1.44,159.00,24.502,-10.576,974.395,-0.07,0.12,-0.01
1766218582903,-0.74,-1.44,159.01,24.014,-11.064,976.348,-0.07,-0.13,0.05
1766218582913,-0.76,-1.41,158.99,22.061,-13.018,977.812,-0.20,-0.19,-0.26
1766218582923,-0.78,-1.38,158.99,22.061,-15.459,967.559,0.12,0.12,-0.08
1766218582933,-0.82,-1.42,158.99,25.479,-14.971,972.930,-0.32,-0.19,0.05
1766218582943,-0.81,-1.42,159.00,24.502,-13.994,970.977,0.30,0.06,0.05
1766218582953,-0.83,-1.45,159.02,26.455,-13.994,969.023,-0.32,0.06,0.43
1766218582963,-0.78,-1.43,159.01,22.061,-10.576,974.883,-0.01,-0.32,-0.08
1766218582973,-0.76,-1.42,159.02,23.525,-11.553,969.512,-0.07,-0.00,0.24
1766218582983,-0.76,-1.40,159.03,22.549,-13.506,980.254,0.12,-0.00,0.11
1766218582993,-0.75,-1.36,159.03,21.084,-12.041,977.324,0.05,-0.07,0.05
1766218583003,-0.75,-1.33,159.03,20.107,-14.482,974.883,0.49,-0.19,-0.14
1766218583013,-0.75,-1.33,159.02,23.525,-12.041,977.324,-0.26,0.31,-0.01
1766218583023,-0.77,-1.34,159.03,24.014,-14.482,973.418,-0.07,0.12,0.05
1766218583033,-0.75,-1.33,159.02,23.037,-11.064,974.395,-0.07,0.18,-0.20
1766218583043,-0.76,-1.37,159.03,24.990,-13.994,975.371,0.18,-0.13,0.24
1766218583053,-0.73,-1.37,159.03,24.014,-11.553,968.047,0.18,0.12,0.05
1766218583063,-0.74,-1.36,159.04,22.061,-13.018,975.371,0.05,-0.19,0.24
1766218583073,-0.74,-1.34,159.04,22.549,-12.529,976.836,-0.13,0.18,-0.01
1766218583083,-0.72,-1.35,159.03,24.014,-11.064,970.977,0.12,0.12,-0.14
1766218583093,-0.73,-1.38,159.03,24.990,-13.018,978.301,-0.13,-0.13,-0.08
1766218583103,-0.74,-1.37,159.03,22.549,-14.971,972.441,0.43,0.06,-0.08
1766218583113,-0.76,-1.40,159.02,25.479,-13.994,969.023,-0.01,-0.00,-0.20
1766218583123,-0.79,-1.37,159.01,21.084,-15.459,977.324,0.12,-0.13,-0.26
1766218583133,-0.78,-1.37,159.01,23.525,-12.529,970.000,-0.01,-0.00,-0.01
1766218583143,-0.80,-1.38,159.01,23.525,-14.971,977.324,-0.01,-0.13,0.05
1766218583153,-0.80,-1.35,159.00,21.572,-14.482,975.859,0.12,-0.00,-0.14
1766218583163,-0.79,-1.34,158.99,22.549,-12.529,974.883,-0.13,0.12,-0.26
1766218583173,-0.78,-1.37,158.98,24.502,-12.529,976.836,0.05,-0.25,-0.14
1766218583183,-0.77,-1.39,158.99,24.502,-12.041,970.977,-0.07,-0.07,0.17
1766218583193,-0.79,-1.41,159.00,25.479,-14.971,967.070,0.12,0.18,0.11
1766218583203,-0.80,-1.42,158.99,24.502,-15.459,974.395,0.24,-0.13,-0.08
1766218583213,-0.84,-1.41,159.00,23.525,-16.436,972.930,-0.13,-0.07,0.17
1766218583223,-0.85,-1.40,159.02,23.525,-14.971,979.277,0.05,0.06,0.24
1766218583233,-0.86,-1.34,159.03,20.107,-13.994,979.277,-0.32,0.18,0.30
1766218583243,-0.87,-1.35,159.03,24.990,-14.971,973.906,-0.20,0.31,-0.01
1766218583253,-0.87,-1.37,159.02,24.014,-13.506,976.836,-0.45,-0.00,-0.14
1766218583263,-0.86,-1.41,159.02,25.479,-13.506,967.070,-0.01,-0.38,-0.08
1766218583273,-0.86,-1.44,159.01,25.967,-13.018,966.582,-0.45,-0.07,-0.08
1766218583283,-0.82,-1.44,159.02,24.990,-11.553,975.371,-0.01,0.06,0.24
1766218583293,-0.82,-1.41,159.01,22.549,-13.506,968.047,-0.13,0.12,-0.26
1766218583303,-0.81,-1.41,159.02,24.014,-13.994,977.324,0.18,0.12,0.24
1766218583313,-0.81,-1.37,159.02,21.572,-13.018,976.348,-0.13,-0.00,0.05
1766218583323,-0.80,-1.34,159.03,21.084,-13.018,968.047,-0.01,0.06,0.11
1766218583333,-0.84,-1.35,159.03,23.525,-15.459,973.906,-0.26,-0.07,0.05
1766218583343,-0.81,-1.35,159.04,22.061,-13.018,974.883,0.18,-0.13,0.17
1766218583353,-0.79,-1.37,159.04,24.990,-12.529,969.512,0.12,0.18,-0.08
1766218583363,-0.83,-1.40,159.04,25.479,-16.436,978.789,-0.01,-0.13,0.05
1766218583373,-0.84,-1.40,159.04,22.549,-14.971,970.000,0.05,-0.32,-0.08
1766218583383,-0.80,-1.39,159.04,23.525,-10.576,976.348,-0.32,0.06,0.17
1766218583393,-0.82,-1.38,159.05,22.061,-14.482,979.277,-0.13,-0.32,0.05
1766218583403,-0.85,-1.38,159.06,24.014,-15.459,972.930,-0.26,0.12,0.17
1766218583413,-0.83,-1.38,159.05,23.037,-12.529,979.277,-0.01,-0.13,-0.08
1766218583423,-0.86,-1.38,159.05,24.014,-15.947,967.070,-0.20,0.18,0.05
1766218583433,-0.87,-1.39,159.07,24.014,-15.459,970.977,0.12,-0.13,0.24
1766218583443,-0.85,-1.42,159.08,24.502,-13.506,976.836,-0.07,-0.38,0.24
1766218583453,-0.80,-1.44,158.32,24.502,-12.041,970.488,-0.01,-0.13,-15.89
1766218583463,-0.79,-1.37,158.31,19.619,-12.529,976.348,-0.07,0.06,-0.08
1766218583473,-0.79,-1.38,158.32,23.525,-12.041,978.301,-0.32,-0.13,0.24
1766218583483,-0.83,-1.35,158.31,21.572,-15.459,979.277,-0.32,0.12,-0.20
1766218583493,-0.77,-1.37,157.55,24.014,-11.064,974.395,0.05,0.12,-15.82
1766218583503,-0.78,-1.36,157.56,23.037,-13.994,972.930,-0.01,0.12,0.17
1766218583513,-0.78,-1.34,157.57,22.549,-12.529,969.512,-0.13,0.18,0.24
1766218583523,-0.79,-1.36,157.59,23.525,-13.994,975.371,-0.07,-0.13,0.30
1766218583533,-0.74,-1.37,156.83,23.037,-12.041,973.906,0.30,-0.07,-15.89
1766218583543,-0.73,-1.36,156.84,22.061,-12.041,977.812,0.12,-0.19,0.17
1766218583553,-0.71,-1.34,156.84,22.549,-12.041,980.742,0.24,0.12,0.17
1766218583563,-0.75,-1.35,156.84,23.525,-15.947,977.812,0.12,0.06,-0.01
1766218583573,-0.75,-1.34,156.85,22.549,-13.018,975.859,0.18,-0.07,0.11
1766218583583,-0.78,-1.36,156.85,25.479,-14.971,970.977,-0.20,0.37,-0.01
1766218583593,-0.77,-1.35,156.85,23.037,-11.553,969.023,-0.26,0.18,-0.01
1766218583603,-0.78,-1.41,156.85,26.455,-13.994,967.070,0.18,-0.19,-0.01
1766218583613,-0.78,-1.39,156.85,22.061,-14.971,972.930,0.30,-0.13,-0.01
1766218583623,-0.76,-1.43,156.86,27.920,-12.041,977.324,0.24,0.25,0.36
1766218583633,-0.75,-1.43,156.87,23.525,-12.041,978.301,-0.07,-0.19,0.11
1766218583643,-0.76,-1.41,156.88,23.037,-13.018,978.301,-0.13,-0.07,0.17
1766218583654,-0.77,-1.42,156.89,24.014,-14.482,976.348,0.12,-0.25,0.30
1766218583667,-0.77,-1.41,156.89,21.572,-13.506,971.465,0.05,-0.38,-0.08
1766218583678,-0.79,-1.43,156.89,24.502,-14.482,972.930,-0.07,-0.25,-0.08
1766218583683,-0.77,-1.43,156.88,24.014,-12.529,968.047,0.18,-0.13,-0.08
1766218583696,-0.81,-1.40,156.89,21.084,-13.506,969.512,-0.57,-0.25,0.05
1766218583703,-0.81,-1.42,156.88,24.990,-13.506,978.301,-0.13,-0.07,-0.14
1766218583713,-0.79,-1.39,156.88,21.572,-11.553,977.812,-0.13,-0.13,0.11
1766218583723,-0.78,-1.34,156.88,20.596,-12.529,983.672,-0.07,0.25,-0.01
1766218583733,-0.76,-1.34,156.87,23.525,-12.529,979.277,0.05,0.06,-0.20
1766218583743,-0.78,-1.33,156.88,22.549,-13.994,969.512,-0.01,0.18,0.11
1766218583754,-0.82,-1.34,156.88,24.502,-14.971,971.953,-0.32,0.18,0.11
1766218583763,-0.82,-1.36,156.88,24.014,-13.994,972.441,-0.01,0.06,-0.01
1766218583773,-0.78,-1.40,156.89,26.943,-10.576,970.488,-0.07,0.06,0.11
1766218583783,-0.80,-1.42,156.90,26.455,-14.482,976.348,-0.20,0.18,0.24
1766218583793,-0.79,-1.41,156.90,22.061,-12.529,979.277,-0.07,-0.32,0.05
1766218583803,-0.80,-1.41,156.90,24.502,-13.994,980.254,-0.01,0.06,-0.01
1766218583813,-0.78,-1.39,156.90,22.549,-12.529,978.789,-0.01,-0.07,-0.08
1766218583823,-0.77,-1.39,156.91,22.549,-12.041,974.883,-0.07,-0.19,0.17
1766218583833,-0.79,-1.40,156.91,24.014,-14.482,968.535,-0.01,-0.19,0.11
1766218583843,-0.78,-1.41,156.93,23.037,-12.529,971.465,-0.07,-0.38,0.30
1766218583853,-0.80,-1.41,156.92,23.037,-13.994,974.395,-0.20,-0.32,-0.20
1766218583863,-0.83,-1.43,156.92,24.990,-15.947,978.789,-0.07,-0.19,0.11
1766218583873,-0.82,-1.37,156.95,20.107,-13.994,980.742,0.12,0.06,0.49
1766218583883,-0.83,-1.37,156.95,22.549,-14.971,974.883,0.12,-0.19,-0.01
1766218583893,-0.84,-1.39,156.95,25.967,-13.994,976.836,-0.32,0.25,0.11
1766218583903,-0.84,-1.36,156.96,21.572,-14.971,970.977,0.18,-0.00,0.17
1766218583913,-0.81,-1.37,156.95,24.014,-11.553,965.605,-0.01,0.18,-0.14
1766218583924,-0.79,-1.38,156.95,24.014,-12.529,971.953,0.05,-0.13,0.05
1766218583934,-0.79,-1.40,156.96,24.014,-13.506,969.512,-0.07,-0.32,0.05
1766218583944,-0.81,-1.42,156.96,24.014,-14.482,976.348,-0.01,-0.25,-0.01
1766218583954,-0.80,-1.40,156.95,23.037,-13.018,980.254,-0.01,-0.07,-0.14
1766218583964,-0.78,-1.40,156.96,22.061,-12.041,975.371,-0.01,-0.38,0.11
1766218583974,-0.80,-1.39,156.96,23.525,-14.971,980.254,0.05,-0.07,0.11
1766218583984,-0.79,-1.39,156.96,22.549,-12.529,973.418,-0.20,-0.13,0.05
1766218583994,-0.77,-1.41,156.97,24.990,-12.041,969.512,-0.01,-0.07,0.17
1766218584004,-0.72,-1.42,156.96,24.990,-10.088,974.883,0.30,0.06,-0.20
1766218584014,-0.76,-1.43,156.97,24.990,-15.947,972.441,0.12,-0.07,0.11
1766218584024,-0.77,-1.44,156.96,25.479,-13.018,974.395,-0.13,-0.00,-0.08
1766218584034,-0.76,-1.41,156.96,23.037,-12.529,977.812,-0.07,0.18,-0.14
1766218584044,-0.77,-1.35,156.95,20.107,-13.018,975.859,-0.07,0.18,-0.20
1766218584062,-0.79,-1.34,156.95,21.572,-14.971,977.324,0.05,-0.13,0.11
1766218584065,-0.79,-1.35,156.96,23.525,-13.994,979.766,0.18,-0.00,0.11
1766218584073,-0.79,-1.38,156.96,24.990,-13.018,973.906,-0.26,-0.07,-0.08
1766218584083,-0.76,-1.39,156.96,24.990,-11.553,972.441,0.24,0.06,0.11
1766218584093,-0.75,-1.40,156.95,24.014,-11.553,968.047,-0.13,-0.00,-0.14
1766218584103,-0.73,-1.42,156.95,25.967,-11.553,968.535,0.12,0.25,-0.08
1766218584113,-0.73,-1.44,156.95,25.479,-13.018,975.371,0.18,-0.13,-0.08
1766218584123,-0.76,-1.43,156.19,23.525,-15.459,973.906,-0.38,0.06,-15.82
1766218584133,-0.75,-1.41,156.19,22.549,-13.018,980.254,0.37,-0.00,-0.01
1766218584143,-0.76,-1.38,156.19,22.061,-14.482,981.719,0.05,-0.00,0.05
1766218584153,-0.78,-1.36,156.19,22.061,-13.994,979.277,-0.01,-0.07,0.05
1766218584163,-0.74,-1.34,156.18,21.084,-11.553,975.371,0.24,-0.00,-0.20
1766218584173,-0.75,-1.34,156.19,22.549,-13.018,970.000,-0.07,-0.13,0.11
1766218584183,-0.77,-1.40,156.19,25.967,-14.482,970.000,-0.01,-0.32,-0.08
1766218584193,-0.77,-1.44,156.19,25.967,-13.994,968.535,0.24,-0.25,0.11
1766218584203,-0.73,-1.47,155.43,25.967,-11.553,973.418,-0.01,-0.19,-15.82
1766218584213,-0.73,-1.48,155.44,24.502,-12.041,977.812,-0.13,-0.38,0.24
1766218584223,-0.75,-1.45,155.45,22.549,-13.506,977.324,-0.01,-0.07,0.11
1766218584233,-0.76,-1.44,155.45,23.037,-13.506,979.766,-0.01,-0.19,-0.08
1766218584243,-0.76,-1.43,155.46,24.502,-13.506,976.836,0.12,0.06,0.17
1766218584253,-0.75,-1.42,155.45,24.502,-12.041,976.348,-0.13,0.25,-0.08
1766218584263,-0.74,-1.44,155.46,25.479,-12.529,971.465,0.18,-0.00,0.17
1766218584273,-0.75,-1.44,155.45,23.525,-13.994,970.488,0.12,-0.25,-0.14
1766218584283,-0.77,-1.42,155.44,23.525,-14.482,971.953,-0.01,0.06,-0.26
1766218584293,-0.79,-1.42,155.44,23.525,-13.994,977.812,-0.07,-0.13,-0.08
1766218584303,-0.77,-1.41,155.44,23.525,-12.529,976.836,0.12,-0.00,0.05
1766218584313,-0.79,-1.39,155.45,22.549,-14.971,977.324,-0.01,0.06,0.17
1766218584323,-0.79,-1.41,155.47,25.479,-13.994,975.859,0.12,-0.07,0.49
1766218584333,-0.81,-1.41,155.46,24.502,-13.994,971.465,-0.20,0.25,-0.20
1766218584343,-0.81,-1.41,155.48,24.014,-13.506,968.535,-0.07,-0.13,0.36
1766218584353,-0.80,-1.41,155.49,23.037,-13.018,971.465,-0.07,-0.25,0.17
1766218584363,-0.78,-1.40,155.50,21.572,-11.553,968.535,-0.07,-0.32,0.30
1766218584373,-0.79,-1.39,155.50,23.037,-13.506,979.766,-0.13,-0.13,-0.14
1766218584383,-0.79,-1.35,155.51,20.107,-13.994,978.301,0.18,-0.07,0.30
1766218584393,-0.82,-1.34,155.52,24.014,-14.971,979.766,-0.32,0.37,0.11
1766218584403,-0.84,-1.36,155.52,23.525,-13.994,974.395,-0.45,-0.25,0.05
1766218584413,-0.86,-1.37,155.52,23.525,-15.947,973.418,-0.01,-0.13,0.11
1766218584423,-0.87,-1.36,155.52,22.549,-14.971,970.488,-0.07,-0.00,-0.08
1766218584433,-0.83,-1.41,155.53,26.943,-11.553,971.465,-0.01,0.06,0.11
1766218584443,-0.83,-1.38,155.53,21.084,-14.482,975.859,-0.01,-0.13,0.17
1766218584453,-0.84,-1.41,155.54,24.990,-14.482,975.371,-0.07,-0.32,0.05
1766218584463,-0.82,-1.37,155.54,20.596,-13.018,982.695,0.12,-0.07,0.05
1766218584473,-0.81,-1.34,155.54,21.084,-12.529,978.301,-0.20,-0.00,0.05
1766218584483,-0.77,-1.32,155.55,22.061,-12.041,974.883,0.37,0.06,0.30
1766218584493,-0.77,-1.34,155.55,24.502,-13.506,968.535,0.12,0.31,-0.14
1766218584503,-0.76,-1.39,155.54,26.943,-12.529,972.441,0.05,-0.00,-0.08
1766218584513,-0.75,-1.37,155.55,22.549,-12.041,971.465,-0.07,0.18,0.11
1766218584523,-0.75,-1.37,155.55,22.061,-13.506,970.977,0.30,-0.32,-0.01
1766218584533,-0.79,-1.38,155.54,24.502,-15.459,976.348,-0.26,0.06,-0.14
1766218584543,-0.80,-1.31,155.55,18.643,-13.506,979.277,-0.13,0.06,0.11
1766218584553,-0.80,-1.31,155.55,21.572,-13.018,976.836,-0.13,-0.13,0.05
1766218584563,-0.80,-1.29,155.55,21.084,-13.506,977.812,-0.07,0.06,-0.01
1766218584573,-0.80,-1.28,155.56,22.549,-12.529,972.441,-0.26,0.25,0.11
1766218584583,-0.77,-1.30,155.55,23.525,-12.041,970.977,0.24,0.18,-0.08
1766218584593,-0.76,-1.34,155.55,24.990,-11.553,974.395,-0.20,-0.07,-0.08
1766218584603,-0.74,-1.36,155.55,24.990,-12.041,966.582,0.12,0.06,0.11
1766218584613,-0.76,-1.38,155.55,24.502,-13.994,975.371,0.05,0.06,-0.01
1766218584623,-0.76,-1.36,155.54,21.084,-13.506,975.859,0.12,-0.25,-0.32
1766218584633,-0.78,-1.36,155.55,23.525,-14.971,976.836,-0.01,0.12,0.17
1766218584643,-0.78,-1.36,155.53,24.014,-13.994,978.789,0.30,0.18,-0.26
1766218584653,-0.81,-1.34,155.53,21.084,-15.459,972.930,-0.07,-0.19,-0.14
1766218584663,-0.80,-1.32,155.55,20.596,-12.529,973.906,-0.07,-0.25,0.49
1766218584673,-0.82,-1.31,155.55,22.061,-16.436,971.465,0.30,0.18,-0.08
1766218584683,-0.83,-1.34,155.54,25.967,-14.971,970.488,0.12,0.25,-0.14
1766218584693,-0.85,-1.34,155.54,23.525,-14.971,972.441,-0.20,0.25,-0.08
1766218584703,-0.84,-1.38,155.54,25.479,-14.971,977.812,0.24,-0.25,0.05
1766218584713,-0.84,-1.39,155.55,23.525,-13.994,978.301,-0.13,-0.25,0.24
1766218584723,-0.81,-1.45,155.57,26.943,-13.018,979.766,0.24,-0.32,0.30
1766218584733,-0.81,-1.44,155.57,22.549,-13.018,973.906,-0.07,-0.32,0.11
1766218584743,-0.76,-1.42,155.59,23.525,-11.064,969.023,0.18,0.06,0.36
1766218584753,-0.78,-1.46,155.59,26.455,-13.018,972.930,-0.32,-0.19,-0.01
1766218584763,-0.76,-1.44,155.59,24.014,-12.041,972.930,0.18,0.18,0.11
1766218584773,-0.76,-1.44,155.60,23.037,-13.506,970.977,0.12,-0.38,0.24
1766218584783,-0.80,-1.42,155.61,24.014,-15.459,970.488,-0.07,0.31,0.11
1766218584793,-0.79,-1.45,155.62,26.943,-12.529,974.395,-0.20,0.06,0.17
1766218584803,-0.78,-1.43,155.62,23.037,-12.529,974.395,0.05,-0.13,-0.01
1766218584813,-0.80,-1.41,155.62,22.549,-13.506,972.930,-0.32,-0.07,0.05
1766218584823,-0.81,-1.43,155.62,24.502,-14.971,977.324,0.05,-0.32,0.05
1766218584833,-0.81,-1.45,154.86,24.014,-13.994,975.371,-0.32,-0.25,-15.89
1766218584843,-0.78,-1.47,154.85,25.479,-12.041,967.070,0.24,-0.19,-0.14
1766218584853,-0.79,-1.46,154.87,24.990,-13.994,976.836,-0.07,0.18,0.24
1766218584863,-0.80,-1.46,154.87,23.525,-13.018,969.512,-0.26,-0.25,-0.01
1766218584873,-0.82,-1.43,154.86,22.549,-14.482,975.859,-0.26,-0.00,-0.14
1766218584883,-0.81,-1.43,154.86,24.990,-13.994,978.789,0.18,0.06,0.11
1766218584893,-0.84,-1.39,154.86,21.084,-15.947,972.441,-0.07,0.06,-0.01
1766218584903,-0.82,-1.36,154.86,22.549,-13.018,978.301,0.05,0.18,-0.08
1766218584913,-0.87,-1.38,154.86,24.502,-16.924,972.930,-0.20,-0.13,-0.01
1766218584923,-0.88,-1.38,154.87,23.525,-15.459,969.023,-0.13,0.12,0.17
1766218584933,-0.85,-1.40,154.87,24.014,-12.041,971.953,-0.07,-0.25,-0.01
1766218584943,-0.83,-1.39,154.87,22.061,-13.018,969.512,0.05,-0.19,0.05
1766218584953,-0.82,-1.38,154.88,24.014,-13.506,976.836,0.12,0.25,0.24
1766218584963,-0.80,-1.36,154.87,22.061,-12.529,979.277,-0.13,-0.07,-0.14
1766218584973,-0.80,-1.36,154.87,23.525,-13.506,976.836,-0.01,-0.00,-0.08
1766218584983,-0.79,-1.41,154.87,26.455,-13.018,977.812,0.05,-0.07,-0.08
1766218584993,-0.78,-1.43,154.86,24.502,-12.529,973.418,-0.13,-0.38,-0.08
1766218585003,-0.77,-1.44,154.86,24.502,-12.529,967.559,-0.01,-0.19,-0.01
1766218585013,-0.78,-1.45,154.87,24.502,-13.018,971.953,-0.07,-0.13,0.17
1766218585023,-0.80,-1.45,154.87,24.502,-14.482,968.535,-0.07,0.06,0.05
1766218585033,-0.82,-1.40,154.87,22.549,-15.947,978.301,0.12,0.31,-0.01
1766218585043,-0.81,-1.40,154.87,23.037,-12.529,980.254,-0.26,-0.25,-0.14
1766218585053,-0.86,-1.39,154.87,23.037,-17.900,976.348,-0.01,0.06,0.11
1766218585063,-0.88,-1.40,154.88,23.525,-14.971,975.859,-0.20,-0.25,0.11
1766218585073,-0.83,-1.41,154.87,25.479,-11.553,975.371,0.12,0.06,-0.08
1766218585083,-0.81,-1.40,154.89,22.549,-12.529,969.023,0.05,-0.13,0.30
1766218585093,-0.82,-1.40,154.89,24.014,-15.459,972.441,0.12,0.06,-0.08
1766218585103,-0.81,-1.42,154.89,25.479,-14.482,967.070,0.43,0.12,0.17
1766218585113,-0.83,-1.39,154.91,23.037,-14.971,972.930,-0.01,0.18,0.43
1766218585123,-0.82,-1.35,154.91,20.596,-13.506,974.395,0.05,0.12,-0.01
1766218585133,-0.82,-1.36,154.91,23.525,-14.971,975.371,0.18,-0.13,-0.01
1766218585143,-0.79,-1.33,154.89,21.572,-12.041,980.254,0.05,0.18,-0.39
1766218585153,-0.78,-1.37,154.90,24.502,-12.529,974.883,0.05,-0.32,0.11
1766218585163,-0.78,-1.36,154.89,22.549,-14.971,971.953,0.49,-0.07,-0.20
1766218585173,-0.81,-1.37,154.89,23.525,-14.971,978.789,-0.26,-0.13,-0.08
1766218585183,-0.83,-1.42,154.89,25.967,-14.971,968.535,-0.01,-0.32,0.05
1766218585193,-0.84,-1.40,154.88,22.061,-14.482,973.418,-0.26,-0.19,-0.14
1766218585203,-0.83,-1.40,154.89,23.037,-13.994,975.371,0.18,-0.19,0.05
1766218585213,-0.82,-1.42,154.87,25.479,-13.506,976.348,-0.07,0.06,-0.26
1766218585223,-0.81,-1.41,154.88,23.037,-12.041,982.207,-0.26,-0.13,0.05
1766218585233,-0.82,-1.44,154.87,24.502,-15.459,977.324,0.18,-0.50,-0.14
1766218585243,-0.83,-1.44,154.87,24.990,-13.506,967.559,-0.20,-0.00,-0.08
1766218585253,-0.86,-1.46,154.87,25.967,-14.971,972.930,-0.38,-0.00,0.11
1766218585263,-0.83,-1.42,154.86,22.061,-12.529,970.488,0.05,0.18,-0.32
1766218585273,-0.82,-1.43,154.85,24.502,-13.018,975.859,-0.13,-0.25,-0.01
1766218585283,-0.81,-1.47,154.86,26.455,-13.506,979.277,0.05,-0.19,0.05
1766218585293,-0.84,-1.45,154.87,24.014,-15.459,979.277,-0.13,-0.00,0.24
1766218585303,-0.82,-1.45,154.87,23.525,-13.506,977.812,0.05,-0.32,0.11
1766218585313,-0.80,-1.46,154.87,24.502,-12.529,974.883,0.05,-0.25,-0.14
1766218585323,-0.78,-1.48,154.88,25.479,-11.553,970.977,-0.13,-0.25,0.17
1766218585333,-0.82,-1.45,154.88,23.037,-15.459,966.582,-0.13,-0.00,-0.01
1766218585343,-0.83,-1.46,154.86,24.502,-14.482,970.977,-0.07,-0.19,-0.32
1766218585353,-0.83,-1.47,154.85,24.990,-13.994,976.348,-0.13,-0.13,-0.14
1766218585363,-0.84,-1.46,154.86,23.525,-13.994,980.742,-0.32,-0.19,0.11
1766218585373,-0.80,-1.45,154.85,23.037,-11.553,978.789,0.05,-0.32,-0.08
1766218585383,-0.79,-1.38,154.86,21.084,-12.041,977.812,-0.07,0.37,0.17
1766218585393,-0.77,-1.36,154.86,21.572,-12.041,972.930,0.05,-0.00,0.05
1766218585403,-0.76,-1.34,154.87,21.572,-12.529,970.000,0.05,-0.00,0.05
1766218585413,-0.75,-1.37,154.87,24.502,-12.529,971.465,-0.01,-0.13,0.05
1766218585423,-0.76,-1.43,154.86,27.432,-13.994,971.465,0.12,-0.13,-0.14
1766218585433,-0.77,-1.42,154.87,23.525,-13.018,970.000,-0.20,-0.13,0.17
1766218585443,-0.78,-1.40,154.86,21.572,-14.482,978.789,0.24,-0.19,-0.20
1766218585453,-0.77,-1.36,154.86,20.107,-11.553,970.977,-0.32,-0.13,-0.01
1766218585463,-0.78,-1.34,154.85,22.061,-13.994,980.742,-0.07,-0.00,-0.14
1766218585473,-0.79,-1.34,154.86,23.525,-13.506,979.277,-0.20,0.12,0.17
1766218585483,-0.77,-1.32,154.87,21.572,-12.041,972.930,0.05,0.06,0.11
1766218585493,-0.80,-1.30,154.87,21.572,-15.459,973.418,-0.01,0.12,0.05
1766218585503,-0.78,-1.35,154.11,24.502,-13.018,971.953,-0.07,-0.07,-15.82
1766218585513,-0.82,-1.37,154.11,24.014,-16.436,972.441,-0.07,-0.13,-0.08
1766218585523,-0.82,-1.41,154.13,26.455,-13.506,975.371,-0.01,-0.00,0.36
1766218585533,-0.79,-1.39,154.13,21.572,-11.553,976.348,-0.07,-0.38,-0.01
1766218585543,-0.78,-1.37,154.14,22.061,-13.018,979.766,0.12,-0.07,0.24
1766218585553,-0.76,-1.35,154.15,21.084,-12.529,978.301,0.18,-0.25,0.30
1766218585563,-0.76,-1.40,154.15,25.479,-13.018,970.977,0.05,-0.32,-0.01
1766218585573,-0.76,-1.40,154.14,24.502,-13.018,976.348,-0.07,0.06,-0.20
1766218585583,-0.74,-1.41,154.16,24.990,-11.553,971.953,0.05,0.12,0.30
1766218585593,-0.76,-1.42,154.16,25.967,-13.506,970.977,-0.13,0.37,-0.01
1766218585603,-0.78,-1.43,154.15,24.502,-14.482,976.836,-0.01,-0.25,-0.20
1766218585613,-0.79,-1.44,154.15,24.014,-13.994,971.465,-0.13,-0.13,0.05
1766218585623,-0.80,-1.43,154.15,23.037,-13.506,976.836,-0.13,-0.19,0.05
1766218585633,-0.82,-1.40,154.15,23.037,-15.459,978.301,-0.01,0.18,-0.14
1766218585643,-0.81,-1.40,154.16,24.990,-13.018,970.488,-0.01,0.25,0.24
1766218585653,-0.82,-1.39,154.15,24.014,-13.506,977.324,-0.20,0.18,-0.14
1766218585663,-0.78,-1.44,154.15,26.455,-12.529,975.371,0.30,-0.32,-0.01
1766218585673,-0.83,-1.41,154.15,21.572,-15.947,972.441,-0.20,-0.13,-0.01
1766218585683,-0.84,-1.46,154.15,26.455,-15.459,977.812,-0.01,-0.44,-0.01
1766218585693,-0.83,-1.45,154.15,22.549,-13.506,974.395,0.05,-0.50,-0.01
1766218585703,-0.82,-1.43,154.14,21.572,-13.018,974.883,-0.13,-0.38,-0.14
1766218585713,-0.84,-1.40,154.14,21.084,-14.482,975.859,-0.32,-0.19,-0.08
1766218585723,-0.85,-1.38,154.14,22.549,-15.459,967.559,0.24,0.06,-0.01
1766218585733,-0.83,-1.38,154.14,23.525,-13.018,976.836,0.05,0.06,0.11
1766218585743,-0.80,-1.36,154.15,21.572,-13.018,964.629,0.24,-0.00,0.05
1766218585753,-0.80,-1.34,154.15,22.549,-13.506,974.395,-0.07,0.12,0.11
1766218585763,-0.80,-1.34,154.15,23.037,-14.482,977.324,0.18,0.06,0.05
1766218585773,-0.84,-1.35,154.15,23.037,-14.482,972.930,-0.45,-0.13,-0.01
1766218585783,-0.81,-1.37,154.16,23.037,-12.529,980.254,0.05,-0.44,0.17
1766218585793,-0.78,-1.35,154.15,24.014,-11.553,978.789,-0.01,0.43,-0.26
1766218585803,-0.83,-1.35,154.14,22.549,-15.459,974.395,-0.38,-0.13,-0.08
1766218585813,-0.85,-1.36,154.15,24.014,-14.482,972.930,-0.32,0.06,0.17
1766218585823,-0.81,-1.39,154.16,24.502,-12.041,972.930,0.12,-0.32,0.17
1766218585833,-0.81,-1.44,154.17,26.943,-13.994,972.441,-0.01,-0.07,0.11
1766218585843,-0.80,-1.47,154.18,25.479,-13.018,973.906,0.18,-0.44,0.30
1766218585853,-0.76,-1.46,154.19,23.037,-10.576,975.859,-0.01,-0.38,0.24
1766218585863,-0.73,-1.45,154.20,23.525,-11.064,979.766,-0.01,-0.19,0.11
1766218585873,-0.74,-1.42,154.20,22.549,-12.529,975.371,-0.07,-0.00,-0.01
1766218585883,-0.72,-1.36,154.19,20.596,-11.553,969.512,0.18,0.37,-0.08
1766218585893,-0.74,-1.36,154.19,23.525,-13.018,974.395,-0.26,0.06,-0.08
1766218585903,-0.73,-1.39,154.19,25.479,-12.041,972.930,0.12,-0.07,0.11
1766218585913,-0.73,-1.42,154.19,25.479,-13.018,967.559,0.12,-0.00,-0.01
1766218585923,-0.73,-1.43,154.21,23.525,-13.506,979.766,0.18,-0.57,0.24
1766218585933,-0.73,-1.43,154.22,24.502,-12.041,970.977,0.05,0.12,0.24
1766218585943,-0.75,-1.42,154.23,24.014,-14.482,977.324,0.05,0.06,0.17
1766218585953,-0.73,-1.40,154.21,23.037,-11.064,974.395,-0.13,0.06,-0.26
1766218585963,-0.72,-1.38,154.22,22.549,-11.064,974.395,-0.01,0.06,0.11
1766218585973,-0.74,-1.38,154.22,22.549,-13.506,974.395,-0.07,-0.13,-0.01
1766218585983,-0.74,-1.40,154.21,24.502,-13.018,973.906,0.05,-0.25,-0.20
1766218585993,-0.76,-1.38,154.22,22.061,-14.482,973.418,0.12,-0.13,0.24
1766218586003,-0.77,-1.35,154.23,21.084,-13.506,978.789,-0.13,-0.00,0.17
1766218586013,-0.79,-1.36,154.23,24.014,-14.482,972.930,-0.01,0.06,0.11
1766218586023,-0.77,-1.36,154.23,22.549,-12.529,978.301,0.05,-0.25,-0.01
1766218586033,-0.81,-1.35,154.25,22.549,-14.971,975.859,-0.26,0.12,0.30
1766218586043,-0.81,-1.38,154.24,25.479,-13.994,969.512,-0.01,-0.07,-0.08
1766218586053,-0.82,-1.44,154.24,27.920,-14.482,977.324,-0.01,-0.13,-0.01
1766218586063,-0.81,-1.44,154.25,24.502,-14.482,967.070,0.43,-0.00,0.17
1766218586073,-0.77,-1.43,154.25,22.549,-11.064,971.953,-0.01,-0.32,-0.08
1766218586083,-0.73,-1.42,154.26,22.549,-10.088,976.348,-0.01,-0.32,0.24
1766218586093,-0.76,-1.38,154.26,19.131,-13.506,972.441,-0.20,-0.44,-0.08
1766218586103,-0.73,-1.34,154.26,19.131,-10.576,978.789,-0.13,-0.32,-0.01
1766218586113,-0.77,-1.34,154.26,23.037,-13.994,977.812,-0.32,-0.00,0.05
1766218586123,-0.76,-1.33,154.26,21.084,-12.529,975.859,-0.01,-0.19,-0.01
1766218586133,-0.76,-1.36,154.26,23.037,-12.529,974.395,-0.13,-0.50,-0.01
1766218586143,-0.78,-1.37,154.26,23.525,-15.459,970.977,0.24,-0.25,0.11
1766218586153,-0.80,-1.40,154.27,25.479,-12.529,969.023,-0.51,0.06,0.11
1766218586163,-0.76,-1.39,154.27,22.549,-11.064,970.977,0.05,-0.25,-0.01
1766218586173,-0.81,-1.37,155.04,23.037,-14.482,974.883,-0.20,0.06,16.05
1766218586183,-0.81,-1.34,155.04,20.107,-13.994,977.812,-0.07,-0.32,-0.08
1766218586193,-0.81,-1.35,155.04,22.549,-13.506,975.859,-0.01,-0.25,0.05
1766218586203,-0.81,-1.35,155.05,23.525,-13.994,980.254,0.05,0.06,0.17
1766218586213,-0.82,-1.36,155.05,24.014,-14.482,973.906,-0.07,0.12,0.11
1766218586223,-0.79,-1.36,155.07,23.525,-12.529,970.000,0.18,0.06,0.36
1766218586233,-0.80,-1.38,155.08,24.014,-13.506,970.977,-0.07,-0.07,0.24
1766218586243,-0.79,-1.39,155.08,23.525,-13.018,970.488,-0.01,-0.32,0.05
1766218586253,-0.79,-1.37,155.09,21.084,-13.018,969.023,-0.13,-0.19,0.11
1766218586263,-0.79,-1.38,155.09,23.525,-12.529,980.254,-0.13,-0.32,0.11
1766218586273,-0.81,-1.35,155.10,21.572,-13.994,974.883,-0.32,0.25,0.11
1766218586283,-0.81,-1.35,155.11,22.061,-14.971,978.301,0.37,-0.25,0.24
1766218586293,-0.83,-1.37,155.11,24.502,-14.482,970.977,-0.20,-0.07,-0.08
1766218586303,-0.79,-1.39,155.11,24.502,-12.041,975.859,0.18,-0.13,0.05
1766218586313,-0.78,-1.39,155.11,23.525,-13.506,973.418,0.18,-0.13,0.11
1766218586323,-0.79,-1.40,155.12,24.502,-13.994,970.000,0.12,-0.00,0.11
1766218586333,-0.81,-1.39,155.13,21.572,-13.994,973.906,-0.26,-0.32,0.11
1766218586343,-0.82,-1.37,155.14,22.061,-14.482,972.930,-0.01,-0.07,0.24
1766218586353,-0.80,-1.37,155.15,23.037,-12.041,976.348,-0.07,-0.00,0.24
1766218586363,-0.78,-1.36,155.15,22.549,-12.529,978.789,-0.01,-0.19,0.11
1766218586373,-0.79,-1.37,155.16,23.037,-13.994,977.324,-0.07,-0.19,0.05
1766218586383,-0.79,-1.32,155.16,19.619,-13.018,965.117,-0.01,0.18,0.11
1766218586393,-0.78,-1.31,155.16,21.572,-12.529,973.906,-0.01,-0.13,-0.08
1766218586403,-0.80,-1.35,155.15,24.014,-14.971,970.000,-0.07,-0.44,-0.14
1766218586413,-0.81,-1.37,155.16,24.014,-13.994,971.953,0.05,-0.13,0.24
1766218586423,-0.79,-1.38,155.17,23.525,-13.506,978.789,0.18,-0.07,0.17
1766218586433,-0.80,-1.42,155.18,26.455,-13.994,979.277,-0.13,-0.13,0.17
1766218586443,-0.81,-1.42,155.19,24.014,-13.994,975.371,-0.07,-0.07,0.11
1766218586453,-0.86,-1.44,155.19,24.990,-16.924,975.371,-0.20,-0.32,0.05
1766218586463,-0.82,-1.43,155.19,22.549,-11.553,967.070,-0.07,-0.25,-0.01
1766218586473,-0.82,-1.45,155.19,25.479,-13.018,970.488,-0.13,-0.19,-0.01
1766218586483,-0.80,-1.46,155.19,24.990,-12.529,973.906,-0.01,-0.13,0.05
1766218586493,-0.78,-1.45,155.19,23.037,-12.529,974.395,0.12,-0.19,0.11
1766218586503,-0.76,-1.41,155.18,21.572,-12.529,979.277,0.12,-0.07,-0.26
1766218586513,-0.78,-1.40,155.18,24.990,-14.971,977.324,0.12,0.37,0.05
1766218586523,-0.78,-1.38,155.18,23.525,-13.506,978.301,-0.01,0.31,-0.01
1766218586533,-0.79,-1.40,155.19,25.479,-13.994,977.812,0.05,0.12,0.17
1766218586543,-0.76,-1.38,155.19,22.549,-11.553,972.930,0.18,0.12,-0.01
1766218586553,-0.73,-1.45,155.18,27.920,-10.576,972.930,-0.01,-0.44,-0.14
1766218586563,-0.71,-1.42,155.19,22.549,-10.088,972.441,-0.20,0.06,0.11
1766218586573,-0.73,-1.46,155.18,25.967,-13.506,969.023,-0.13,-0.19,-0.14
1766218586583,-0.74,-1.45,155.18,24.014,-12.041,976.836,-0.26,-0.13,-0.01
1766218586593,-0.77,-1.46,155.18,24.502,-13.994,973.418,-0.32,-0.19,-0.14
1766218586603,-0.80,-1.43,155.19,22.061,-13.994,974.395,-0.26,-0.19,0.24
1766218586613,-0.78,-1.43,155.20,24.014,-13.018,976.348,0.24,-0.19,0.24
1766218586623,-0.78,-1.42,155.21,22.061,-13.506,972.930,0.05,-0.32,0.11
1766218586633,-0.77,-1.40,155.21,22.549,-12.529,976.348,-0.01,-0.07,0.05
1766218586643,-0.78,-1.39,155.23,22.549,-14.482,970.000,0.05,-0.13,0.55
1766218586653,-0.81,-1.38,155.24,22.549,-14.482,972.930,-0.13,-0.00,0.05
1766218586663,-0.81,-1.38,155.25,23.525,-13.994,976.836,-0.13,-0.07,0.17
1766218586673,-0.82,-1.35,155.25,21.084,-13.994,976.348,-0.13,-0.00,0.05
1766218586683,-0.82,-1.33,156.01,22.549,-12.529,980.254,-0.01,-0.00,15.80
1766218586693,-0.80,-1.35,156.01,24.014,-12.529,978.301,-0.07,-0.00,0.17
1766218586703,-0.84,-1.31,156.01,19.619,-15.459,970.488,-0.26,-0.19,-0.08
1766218586713,-0.80,-1.33,156.02,24.014,-10.576,966.582,-0.20,0.18,0.11
1766218586723,-0.82,-1.32,156.02,22.549,-14.482,969.023,-0.07,0.06,-0.01
1766218586733,-0.80,-1.33,156.01,21.572,-13.018,973.906,0.05,-0.38,-0.08
1766218586743,-0.78,-1.37,156.01,24.502,-13.018,981.719,0.24,-0.44,0.05
1766218586753,-0.78,-1.36,156.02,21.572,-12.529,972.441,-0.13,-0.25,0.11
1766218586763,-0.78,-1.35,156.03,22.549,-12.041,975.859,-0.26,0.06,0.17
1766218586773,-0.79,-1.34,156.02,22.549,-13.994,974.883,-0.13,0.12,-0.26
1766218586783,-0.78,-1.34,156.00,23.525,-11.553,969.023,-0.20,0.18,-0.20
1766218586793,-0.75,-1.33,156.00,21.572,-12.041,974.395,0.18,-0.07,-0.20
1766218586803,-0.73,-1.37,156.00,25.967,-11.553,971.953,0.12,0.06,0.05
1766218586813,-0.75,-1.37,155.99,24.014,-13.994,977.324,-0.01,-0.00,-0.14
1766218586823,-0.75,-1.38,155.98,23.037,-13.018,978.789,0.12,-0.19,-0.20
1766218586833,-0.75,-1.38,155.99,23.525,-13.506,971.953,0.24,-0.13,0.24
1766218586843,-0.75,-1.37,156.00,22.061,-13.018,977.324,0.05,-0.07,0.17
1766218586853,-0.76,-1.33,156.00,20.596,-13.018,976.836,-0.13,-0.00,0.05
1766218586863,-0.76,-1.38,156.01,25.967,-12.529,970.000,-0.13,-0.07,0.17
1766218586873,-0.75,-1.41,156.03,24.502,-13.018,976.836,0.30,-0.38,0.30
1766218586883,-0.76,-1.43,156.03,24.990,-14.482,968.535,0.24,-0.25,0.05
1766218586893,-0.75,-1.42,156.04,22.549,-12.529,973.906,0.12,-0.19,0.17
1766218586903,-0.79,-1.39,156.06,22.549,-16.436,974.395,0.12,0.06,0.43
1766218586913,-0.77,-1.43,156.06,25.479,-12.041,971.953,-0.01,-0.32,-0.08
1766218586923,-0.78,-1.43,156.06,24.990,-13.994,979.277,0.05,0.12,-0.01
1766218586933,-0.75,-1.38,156.06,21.572,-11.553,979.277,0.18,0.31,0.05
1766218586943,-0.75,-1.35,156.06,22.061,-13.994,970.977,0.30,0.31,-0.01
1766218586953,-0.73,-1.39,156.05,25.479,-10.576,970.488,-0.13,-0.25,-0.20
1766218586963,-0.73,-1.41,156.04,25.967,-12.529,970.000,-0.07,0.18,-0.20
1766218586973,-0.76,-1.44,156.03,25.967,-14.482,968.535,0.05,-0.00,-0.14
1766218586983,-0.73,-1.43,156.05,24.014,-10.576,980.254,-0.01,-0.07,0.30
1766218586993,-0.76,-1.45,156.05,25.967,-14.482,978.789,-0.07,-0.00,-0.01
1766218587003,-0.76,-1.47,156.05,24.990,-13.506,980.254,-0.01,-0.32,0.11
1766218587013,-0.78,-1.45,156.04,23.037,-13.506,979.766,-0.20,-0.13,-0.14
1766218587023,-0.78,-1.39,156.05,20.596,-13.018,968.535,-0.01,0.12,0.17
1766218587033,-0.75,-1.39,156.05,24.014,-10.576,973.906,-0.07,0.12,-0.08
1766218587043,-0.75,-1.39,156.06,23.525,-13.018,967.559,0.05,-0.00,0.17
1766218587053,-0.76,-1.40,156.06,24.502,-13.994,976.348,-0.01,-0.07,0.05
1766218587063,-0.75,-1.41,156.07,24.502,-11.553,978.301,-0.20,-0.07,0.24
1766218587073,-0.77,-1.42,156.06,24.990,-13.994,970.488,-0.01,0.12,-0.14
1766218587083,-0.77,-1.42,156.07,22.549,-12.529,980.742,-0.20,-0.44,0.11
1766218587093,-0.78,-1.39,156.08,23.037,-14.971,974.395,0.37,0.25,0.11
1766218587103,-0.78,-1.41,156.08,24.014,-13.018,968.535,-0.07,-0.25,-0.01
1766218587113,-0.75,-1.40,156.07,23.525,-11.553,976.348,0.05,0.12,-0.20
1766218587123,-0.69,-1.44,156.07,25.479,-9.111,951.934,0.37,-0.25,0.05
1766218587133,-0.77,-1.43,156.07,23.525,-17.412,969.023,-0.07,-0.13,0.05
1766218587143,-0.71,-1.45,156.08,25.967,-9.600,990.508,0.30,-0.07,0.24
1766218587153,-0.74,-1.41,156.08,21.084,-13.994,972.930,-0.20,-0.07,-0.01
1766218587163,-0.74,-1.40,156.08,23.525,-12.529,985.137,-0.13,-0.13,-0.08
1766218587173,-0.73,-1.42,156.07,24.014,-11.553,968.047,-0.07,-0.19,-0.08
1766218587183,-0.72,-1.42,156.07,24.014,-11.553,970.000,-0.01,-0.19,-0.14
1766218587193,-0.77,-1.43,156.07,24.502,-15.459,974.883,-0.13,-0.13,0.05
1766218587203,-0.76,-1.40,156.07,22.061,-13.506,973.418,0.24,-0.00,-0.01
1766218587213,-0.77,-1.39,156.07,22.061,-13.994,970.000,0.12,-0.25,0.05
1766218587223,-0.77,-1.37,156.08,22.549,-13.994,977.812,0.24,0.06,0.05
1766218587233,-0.77,-1.37,156.08,23.525,-12.529,973.906,-0.26,0.06,0.11
1766218587243,-0.79,-1.33,156.08,20.107,-14.971,980.742,0.12,-0.07,-0.01
1766218587253,-0.80,-1.37,156.09,25.479,-13.994,975.371,-0.07,-0.00,0.17
1766218587263,-0.81,-1.36,156.08,23.037,-13.506,974.883,-0.26,-0.00,-0.14
1766218587273,-0.82,-1.40,156.08,26.455,-14.971,975.371,-0.01,-0.00,-0.08
1766218587283,-0.82,-1.40,156.08,24.502,-13.506,967.559,0.05,0.31,0.11
1766218587293,-0.81,-1.42,156.09,24.990,-13.506,974.395,0.05,-0.13,0.05
1766218587303,-0.79,-1.41,156.09,23.525,-13.506,971.465,0.30,-0.07,0.11
1766218587313,-0.79,-1.37,156.08,20.107,-13.994,975.859,0.05,-0.07,-0.20
1766218587323,-0.78,-1.36,156.07,23.037,-13.994,979.277,0.37,0.06,-0.20
1766218587334,-4.56,12.30,158.86,-985.264,375.654,-2771.211,-112.57,200.87,63.49
1766218587343,-7.42,28.73,157.20,-470.127,-448.076,897.246,37.05,289.99,8.11
1766218587353,-6.51,31.75,156.75,32.803,-212.236,1801.055,21.11,191.99,14.05
1766218587363,2.45,28.87,161.70,669.521,494.795,1115.996,35.43,154.99,47.92
1766218587373,0.91,22.98,160.97,303.799,-306.475,2615.508,10.36,27.18,2.24
1766218587384,-1.98,11.81,160.37,205.166,-269.365,1985.625,-20.26,-105.44,-4.64
1766218587394,-0.75,-5.09,162.63,837.002,170.576,459.746,-25.89,-107.57,28.86
1766218587403,4.44,-13.06,164.55,426.846,222.822,-192.598,5.11,56.12,54.86
1766218587414,-0.73,-12.66,166.57,279.385,-505.205,1331.328,7.05,2.56,15.99
1766218587424,-3.12,-17.15,166.46,378.994,-188.311,1038.359,-11.45,-61.44,-14.51
1766218587433,-2.02,-21.83,166.19,626.553,10.908,636.992,8.55,20.00,0.05
1766218587444,-3.23,-20.56,166.00,504.971,-183.916,1937.285,-12.89,-5.94,-9.14
1766218587453,-2.59,-20.09,165.05,398.525,1.631,1798.125,-7.01,-26.00,-14.95
1766218587464,-1.73,-16.99,163.10,135.830,46.064,1982.207,-11.70,-6.13,-33.70
1766218587473,-0.81,-10.39,160.41,-156.162,-28.643,815.703,7.11,17.31,-56.76
1766218587484,4.70,-7.77,157.92,-79.990,250.166,677.031,16.43,-21.13,-38.51
1766218587494,3.40,-9.91,156.72,-117.588,54.854,2079.375,-16.89,-95.25,-19.76
1766218587504,1.60,-14.86,153.94,-306.064,-57.939,2000.762,-28.51,-187.19,-52.33
1766218587514,16.76,-22.46,147.23,-252.354,479.170,-397.676,97.61,-246.07,-67.51
1766218587524,18.99,-16.76,145.55,-55.088,530.439,690.215,-49.07,7.93,-5.26
1766218587534,13.39,-18.32,145.07,36.709,-286.455,4633.574,-25.14,-106.50,-7.01
1766218587543,11.16,-16.41,146.48,438.564,192.549,5022.246,9.99,-15.69,16.67
1766218587554,8.83,-12.49,147.50,-10.166,140.303,2135.527,-10.95,9.62,10.18
1766218587563,5.84,-6.35,148.65,-112.217,-15.947,800.566,-14.70,39.31,9.11
1766218587573,3.25,-4.84,148.77,13.271,-120.439,1345.977,-5.14,5.62,-3.26
1766218587583,3.95,-15.47,152.16,786.709,75.361,948.027,22.36,-71.19,69.99
1766218587594,-4.78,-23.23,160.47,796.475,-565.264,600.859,9.18,-37.51,109.61
1766218587604,-12.22,-16.10,162.00,-292.393,-710.283,762.969,-2.20,3.99,-24.01
1766218587613,-5.70,-12.26,157.77,-31.162,439.619,1658.965,1.68,14.62,-56.95
1766218587624,0.83,-4.61,154.38,-328.037,337.568,662.383,1.68,12.06,-54.20
1766218587633,6.10,-5.91,152.89,228.604,426.436,884.062,2.49,9.81,-22.58
1766218587643,8.47,-8.95,153.16,241.787,300.947,898.223,-3.20,-23.57,14.49
1766218587653,11.59,-18.83,154.30,538.174,218.916,766.387,43.30,-91.13,42.55
1766218587664,13.91,-32.67,156.11,683.193,-16.924,518.340,99.93,-140.19,49.42
1766218587674,9.13,-35.24,161.90,166.592,-550.127,565.215,148.12,-89.94,1.86
1766218587684,11.08,-30.71,162.63,-414.463,-391.924,828.887,156.55,-113.63,-48.58
1766218587694,20.39,-30.76,157.93,-43.857,76.338,829.863,168.43,-171.82,-67.82
1766218587704,35.36,-26.36,150.35,-122.959,340.010,579.863,205.30,-150.63,-88.45
1766218587714,51.90,-16.49,142.33,-489.658,480.635,315.703,235.55,-160.26,-97.57
1766218587724,60.93,-11.29,135.90,-281.162,442.549,842.070,261.93,-166.57,-75.45
1766218587734,75.32,-18.69,129.02,349.697,598.799,373.320,285.80,-163.69,19.86
1766218587744,82.56,-24.02,126.89,125.576,379.561,816.680,322.74,-128.51,99.36
1766218587754,89.74,-30.67,129.44,-30.186,-32.549,516.387,407.36,-66.19,141.80
1766218587764,98.23,-40.66,133.25,-202.549,-516.924,1480.742,430.80,-40.19,179.11
1766218587774,109.64,-52.20,133.35,-475.986,-1049.639,1803.496,394.93,-70.75,186.05
1766218587784,129.50,-57.14,122.76,-1517.002,-929.521,1958.281,335.30,-180.26,159.86
1766218587794,155.20,-58.33,106.02,-1367.588,-1088.701,1681.426,283.74,-196.32,118.36
1766218587804,-179.72,-52.97,91.99,-938.389,-1263.018,1419.707,259.11,-245.07,21.80
1766218587814,-155.01,-42.21,84.06,-464.268,-1196.123,889.922,291.99,-279.38,-18.51
1766218587824,-128.86,-26.39,86.33,-550.693,-1151.689,289.824,402.49,-260.19,-52.76
1766218587834,-97.01,-13.08,95.06,-474.521,-1034.014,-75.898,556.86,-189.44,-65.14
1766218587844,-58.75,-4.49,104.42,-643.467,-971.514,202.910,676.80,-128.07,-76.57
1766218587854,-22.02,-1.39,109.55,-424.229,-899.736,669.219,705.05,-76.25,-75.57
1766218587864,3.51,-0.49,109.71,-317.783,-1090.166,743.438,672.61,-45.32,-77.45
1766218587874,21.25,4.72,107.10,-521.396,-1400.225,886.992,602.74,10.74,-105.45
1766218587884,31.94,13.15,101.88,-587.314,-1638.018,1265.410,495.30,49.31,-152.64
1766218587894,35.88,23.73,93.46,-686.436,-1727.861,1753.691,387.18,63.99,-201.89
1766218587904,32.49,34.74,79.10,-751.377,-1618.975,1788.848,307.11,44.74,-256.76
1766218587914,23.95,44.40,57.19,-729.893,-1294.268,1430.449,321.11,33.87,-293.26
1766218587924,14.61,50.83,27.56,-808.994,-894.854,1161.406,424.61,37.18,-317.20
1766218587934,12.95,51.47,-3.89,-615.146,-449.053,1105.742,549.55,44.81,-314.64
1766218587944,24.42,49.68,-31.58,-375.400,-143.877,1370.391,649.49,53.56,-290.08
1766218587954,37.92,50.74,-57.04,-133.213,-56.475,1783.477,642.99,69.43,-267.20
1766218587964,45.87,54.35,-79.38,45.498,-42.803,2117.949,555.05,86.50,-240.45
1766218587974,49.15,59.28,-97.91,130.459,-66.729,2216.094,459.11,132.12,-207.26
1766218587984,47.71,64.18,-115.19,96.768,-188.799,2363.555,373.36,164.68,-169.64
1766218587994,35.17,65.67,-140.57,-198.643,-430.986,2923.125,299.49,102.43,-144.95
1766218588004,19.76,62.38,-167.60,-190.830,-635.088,2911.406,257.49,53.74,-131.76
1766218588014,9.62,55.77,169.82,-142.002,-812.822,2652.129,261.55,19.56,-132.89
1766218588024,5.43,48.78,151.36,-160.557,-910.479,2469.512,292.05,10.43,-145.57
1766218588034,4.61,43.32,135.81,-156.162,-826.982,2400.664,297.74,30.93,-158.57
1766218588044,4.59,37.99,123.18,-122.471,-645.830,2428.008,245.43,28.87,-153.20
1766218588054,4.62,34.57,113.62,-16.514,-479.326,2433.867,181.62,67.81,-129.45
1766218588064,2.27,33.21,106.31,-5.771,-448.076,2460.723,92.36,107.50,-100.95
1766218588074,-1.91,33.40,101.04,-46.299,-451.006,2447.051,19.80,139.12,-67.82
1766218588084,-6.47,34.44,97.71,-100.986,-507.158,2595.977,-23.20,157.12,-30.51
1766218588094,-12.22,36.56,95.40,-128.330,-593.096,2533.965,-67.64,181.43,-1.95
1766218588104,-18.05,40.06,95.00,-166.904,-526.201,2756.133,-120.01,210.49,35.42
1766218588114,-24.66,42.36,97.09,-247.471,-598.955,3183.867,-186.70,180.49,69.68
1766218588124,-33.22,43.29,100.10,-220.127,-810.869,3358.672,-249.45,151.87,78.93
1766218588134,-44.12,42.63,103.36,-323.643,-1033.525,3412.383,-316.76,113.18,62.42
1766218588144,-57.70,40.76,106.82,-382.725,-1141.924,3500.762,-405.57,87.06,29.49
1766218588154,-74.71,39.13,112.76,-187.412,-935.381,3910.430,-562.32,60.62,13.93
1766218588164,-92.73,38.54,125.32,-2.842,-887.041,3541.777,-713.32,-45.26,14.68
1766218588174,-106.27,38.51,141.17,-23.838,-880.205,2339.629,-696.95,-107.57,-11.64
1766218588184,-113.62,37.83,155.05,56.729,-870.928,1510.039,-543.45,-76.25,-10.07
1766218588194,-110.32,38.43,168.50,-224.521,-1008.623,1277.617,-301.64,-76.75,4.30
1766218588204,-94.41,36.26,-177.78,-169.834,-1198.076,1242.461,-35.38,-86.13,8.93
1766218588214,-71.06,30.22,-165.18,-176.670,-1275.225,1378.691,152.37,-111.44,2.05
1766218588224,-48.94,23.01,-159.31,-194.248,-1273.271,1543.730,257.30,-72.32,-0.20
1766218588234,-34.37,17.31,-157.42,-185.459,-1401.689,2026.641,216.74,-41.32,-0.70
1766218588244,-31.43,13.55,-159.29,-240.146,-1674.150,2155.059,84.30,-3.94,-38.70
1766218588254,-39.22,12.13,-164.96,-232.822,-1545.244,2569.609,-138.01,83.56,-85.45
1766218588264,-54.95,10.28,-171.98,-148.350,-1293.779,2677.520,-367.26,133.74,-96.82
1766218588274,-75.02,7.17,-177.80,-147.373,-1050.615,2729.277,-570.20,135.31,-85.57
1766218588284,-98.09,3.41,177.96,-83.896,-891.436,2758.086,-738.64,129.68,-62.33
1766218588294,-127.93,-0.24,176.28,-106.357,-774.736,2830.840,-958.76,90.50,-46.45
1766218588304,-168.32,-1.36,176.48,-125.400,-530.596,2449.492,-1136.89,26.12,-30.08
1766218588314,132.02,1.24,172.84,-154.697,-228.350,1813.750,-1203.32,-55.63,-4.39
1766218588324,64.83,1.79,167.87,-95.615,-130.205,98.418,-1126.07,22.31,25.67
1766218588334,31.47,1.82,175.00,161.709,-107.256,-863.008,-840.20,91.75,55.36
1766218588344,12.64,7.19,-177.27,114.346,-295.732,-887.422,-447.14,161.18,95.36
1766218588354,-7.09,16.99,-172.87,-35.068,-625.322,267.363,-178.26,194.31,114.99
1766218588364,-20.60,26.95,-172.10,-350.498,-934.893,1381.133,-186.88,207.37,101.93
1766218588374,-39.69,34.02,-174.34,-233.311,-864.580,1334.258,-347.26,216.49,93.93
1766218588384,-61.25,38.59,-179.63,-154.697,-733.721,941.191,-421.51,229.31,92.36
1766218588394,-78.14,39.17,174.57,-28.721,-712.725,870.391,-368.26,222.62,81.24
1766218588404,-86.66,37.39,171.15,40.127,-803.545,1161.895,-273.64,188.68,56.42
1766218588414,-87.96,34.50,170.45,-17.002,-879.717,1441.191,-186.32,143.18,19.61
1766218588424,-84.60,30.55,172.39,-17.002,-836.260,1669.219,-139.20,91.68,-16.39
1766218588434,-78.59,24.83,176.10,61.611,-682.939,1734.648,-111.45,38.12,-52.14
1766218588444,-70.19,17.55,-179.13,139.736,-451.982,1546.660,-73.07,-22.63,-69.89
1766218588454,-59.11,9.62,-174.72,123.623,-310.869,1329.863,-6.32,-68.82,-71.45
1766218588464,-47.05,1.28,-172.58,87.490,-346.025,1175.566,63.24,-92.69,-83.76
1766218588474,-33.56,-7.92,-172.38,198.330,-174.150,1110.625,112.86,-120.44,-86.32
1766218588484,-17.48,-15.43,-174.43,132.412,-27.666,894.805,183.80,-138.13,-84.32
1766218588494,1.68,-19.55,-178.32,15.225,20.186,865.020,290.68,-152.19,-83.64
1766218588504,22.66,-22.41,177.24,16.689,61.201,853.789,400.68,-171.76,-64.32
1766218588514,41.93,-24.65,174.21,-24.814,-36.943,833.281,494.55,-182.26,-25.70
1766218588524,56.64,-28.83,172.53,-27.744,-353.350,1005.156,511.99,-187.19,11.61
1766218588534,66.99,-34.37,171.32,-64.365,-813.799,1104.277,436.80,-177.76,24.86
1766218588544,73.03,-39.81,170.14,-149.326,-1200.518,1093.047,306.61,-161.51,10.24
1766218588554,75.50,-45.23,169.02,-105.869,-1499.346,903.105,182.43,-135.88,-24.39
1766218588564,74.74,-49.80,169.26,-97.080,-1581.865,732.207,101.74,-101.19,-61.45
1766218588574,70.34,-53.10,172.38,-146.885,-1469.072,630.645,61.87,-64.57,-86.20
1766218588584,62.63,-55.53,179.60,-37.021,-1216.143,655.547,76.30,-41.07,-94.45
1766218588594,53.23,-55.80,-169.37,41.104,-934.404,789.336,129.18,-29.57,-91.39
1766218588604,47.54,-51.39,-159.55,-288.975,-802.568,1118.438,186.99,-35.63,-89.32
1766218588614,46.66,-47.43,-152.45,39.639,-533.037,1332.305,245.30,-56.07,-71.39
1766218588624,49.05,-45.40,-146.08,67.959,-406.572,1252.715,307.68,-74.75,-34.08
1766218588634,52.89,-46.67,-138.25,68.936,-457.842,949.004,385.05,-80.07,4.24
1766218588644,58.27,-51.68,-128.12,19.619,-641.436,629.180,477.05,-65.00,29.86
1766218588654,64.62,-58.15,-114.08,-56.064,-919.268,609.648,569.43,-22.88,42.86
1766218588666,68.50,-64.46,-94.05,-30.186,-1178.545,813.262,622.43,9.31,28.99
1766218588674,65.51,-67.91,-64.19,-223.057,-1351.885,1105.254,636.86,44.62,-1.26
1766218588685,59.04,-66.86,-28.38,-345.127,-1371.416,1477.812,633.99,66.18,-41.45
1766218588694,59.05,-61.60,2.20,-287.021,-1111.162,1736.602,634.74,62.99,-79.39
1766218588704,61.76,-55.18,31.46,-177.646,-826.006,1865.508,634.36,93.56,-60.08
1766218588714,67.50,-49.30,56.73,-109.775,-628.740,2131.621,617.43,97.56,-44.58
1766218588724,71.46,-44.78,79.01,-122.471,-546.709,2600.859,544.93,103.50,-23.83
1766218588734,70.53,-41.29,96.59,-191.807,-506.670,3025.664,395.43,76.06,-6.01
1766218588744,60.94,-38.97,110.39,-86.338,-456.377,3327.422,176.18,39.37,23.92
1766218588754,44.35,-37.00,122.95,-83.408,-494.951,3015.410,14.30,14.93,60.55
1766218588764,25.66,-34.03,135.96,-65.342,-743.486,2587.188,-39.70,9.12,92.24
1766218588774,11.46,-29.81,147.56,-133.213,-1116.045,2572.539,2.24,-6.38,104.55
1766218588784,2.76,-26.25,156.59,-243.564,-1545.244,2720.977,56.99,-41.82,91.55
1766218588794,-2.41,-24.59,162.95,-299.717,-1774.736,2658.965,86.68,-84.50,55.92
1766218588804,-4.96,-23.92,167.82,-225.010,-1666.826,2303.984,117.49,-98.38,29.17
1766218588814,-4.19,-22.86,171.74,-160.557,-1360.186,2067.656,159.55,-85.44,17.49
1766218588824,-2.69,-22.73,175.40,-11.143,-1313.799,2192.656,167.24,-87.32,18.55
1766218588834,-3.45,-22.39,179.03,-135.166,-1315.264,2249.785,122.99,-95.00,19.17
1766218588844,-8.48,-21.67,-177.68,-129.307,-1359.209,2174.102,34.49,-89.19,12.36
1766218588854,-17.51,-19.37,-174.77,-100.498,-1409.502,1929.473,-56.63,-57.57,8.24
1766218588864,-28.00,-14.74,-173.93,-69.736,-1538.896,1621.855,-109.45,9.43,-8.57
1766218588874,-36.44,-8.53,-177.05,-42.393,-1550.127,1822.051,-138.07,90.31,-28.51
1766218588884,-44.67,-3.17,176.41,-40.928,-1480.303,2381.133,-209.76,143.62,-50.95
1766218588894,-57.18,-0.48,167.94,-6.748,-1295.244,2730.254,-363.89,173.62,-69.70
1766218588904,-76.97,-1.12,159.26,-64.854,-1028.154,3030.547,-616.01,183.12,-82.89
1766218588914,-104.74,-4.17,150.36,-72.666,-684.893,3083.770,-911.95,218.62,-70.45
1766218588924,-149.01,-8.35,140.44,-172.764,-327.959,3328.398,-1332.57,238.24,-20.33
1766218588934,122.82,-21.80,126.76,-192.295,242.842,2779.082,-1728.32,171.81,43.67
1766218588944,-26.57,-31.78,155.96,-93.662,669.111,848.418,-1925.76,174.68,106.61
1766218588954,-93.68,-16.67,160.67,-186.924,548.506,-964.570,-1777.26,160.93,129.86
1766218588964,-150.43,-8.38,148.78,80.166,-33.525,-2403.535,-1244.39,221.49,134.55
1766218588974,-174.25,-19.24,139.50,82.607,-584.795,-2398.652,-483.07,313.31,134.99
1766218588984,-154.20,-28.86,125.27,-226.963,-1000.811,-74.434,66.93,335.99,96.18
1766218588994,-126.19,-36.97,106.19,-389.561,-1096.025,1871.855,195.55,294.43,33.55
1766218589004,-100.52,-40.13,85.63,-342.686,-855.303,2621.367,86.55,226.87,-13.82
1766218589014,-85.48,-39.98,70.05,-108.799,-454.912,2736.602,-88.57,98.50,-19.89
1766218589024,-78.89,-38.36,59.80,-10.166,-159.990,2071.562,-192.32,7.62,-1.01
1766218589034,-73.86,-37.85,51.41,348.232,-73.564,1028.594,-187.63,-0.69,31.86
1766218589044,-69.13,-31.89,46.75,145.596,-432.451,491.484,-62.88,13.24,33.24
1766218589054,-62.05,-26.46,42.77,161.221,-704.912,721.953,18.18,30.12,9.74
1766218589064,-54.70,-22.38,38.13,120.205,-683.428,1058.379,3.80,36.06,-17.89
1766218589074,-48.89,-19.37,33.49,126.064,-478.838,1108.672,-34.70,36.68,-25.33
1766218589084,-43.70,-17.63,29.27,185.146,-341.631,1030.059,-40.13,34.18,-27.08
1766218589094,-37.06,-16.48,25.87,204.678,-280.596,1152.129,-1.01,19.87,-25.89
1766218589104,-28.19,-16.12,23.73,219.326,-225.908,1309.355,63.99,-7.19,-21.89
1766218589114,-17.54,-17.25,23.14,215.420,-228.838,1590.117,137.12,-56.76,-18.01
1766218589124,-4.83,-19.57,23.75,103.115,-244.463,1656.523,228.99,-110.44,-10.07
1766218589134,11.96,-25.44,24.46,86.514,-207.354,1653.594,355.05,-193.13,1.36
1766218589144,35.08,-34.72,23.74,118.740,-90.166,1575.957,500.36,-272.44,38.24
1766218589154,65.17,-45.47,19.18,46.475,-78.936,1366.973,631.30,-336.38,94.55
1766218589164,111.83,-56.53,2.50,180.264,-251.787,1269.316,764.93,-385.57,148.93
1766218589174,179.58,-55.77,-24.55,-354.893,-534.990,927.031,884.93,-342.82,188.18
1766218589184,-121.80,-41.29,-37.36,-279.209,-918.291,1211.211,932.55,-314.88,212.80
1766218589194,-81.85,-25.08,-33.66,-435.947,-1399.248,1398.223,892.93,-270.57,200.86
1766218589204,-48.60,-13.37,-24.69,-645.908,-1516.436,1721.953,785.68,-226.07,179.30
1766218589214,-22.11,-9.06,-14.54,-431.064,-1718.096,2028.105,618.24,-174.76,157.74
1766218589224,-6.65,-9.91,-6.62,-536.045,-1915.361,2262.969,434.93,-152.69,110.55
1766218589234,-0.55,-12.56,-1.11,-543.857,-1943.682,2338.164,285.68,-146.32,75.05
1766218589244,-2.02,-14.35,2.95,-635.166,-1913.408,2312.773,143.80,-132.57,45.42
1766218589254,-10.88,-11.82,6.04,-895.908,-1900.225,2480.742,-30.76,-67.13,27.55
1766218589265,-40.46,-12.10,5.09,-1617.100,-2850.420,5475.859,-515.51,-111.44,-63.01
1766218589274,-87.30,-27.87,18.90,379.482,-921.709,1929.961,-798.07,-391.88,-178.26
1766218589285,-127.61,-19.87,24.48,-661.533,-279.619,125.762,-720.57,-146.01,-120.70
1766218589294,-157.79,-14.59,30.48,-2.842,-151.689,-364.961,-421.14,-68.13,-66.20
1766218589304,-156.93,-10.37,30.68,-36.045,-306.475,-348.848,-63.76,-15.44,-19.01
1766218589314,-136.99,-8.21,26.52,-121.982,-517.900,384.551,176.05,24.12,22.36
1766218589324,-115.58,-5.89,21.59,-208.896,-937.334,1271.270,215.49,50.49,39.30
1766218589334,-101.42,-3.19,17.13,-330.967,-1327.471,1908.965,52.24,65.62,30.61
1766218589344,-97.49,-1.96,13.60,-327.061,-1565.264,2020.781,-148.82,64.06,-2.70
1766218589354,-99.26,-1.78,10.62,-340.244,-1506.670,1544.219,-242.76,59.31,-33.39
1766218589364,-101.98,-2.84,7.16,-310.947,-1447.100,1234.648,-253.07,75.18,-56.58
1766218589374,-104.41,-4.94,2.25,-392.979,-1435.869,1326.934,-262.95,109.81,-79.45
1766218589385,-109.08,-8.14,-2.28,-404.209,-1400.225,1599.395,-330.45,101.12,-100.89
1766218589395,-115.61,-12.00,-6.49,-419.346,-1212.725,1537.383,-381.14,95.43,-119.14
1766218589404,-122.70,-16.51,-9.96,-431.064,-857.256,1611.602,-403.64,81.31,-130.01
1766218589415,-129.38,-21.72,-13.15,-315.342,-795.244,1610.137,-395.82,68.18,-124.32
1766218589424,-136.16,-27.09,-16.48,-247.471,-751.787,1754.180,-390.45,50.18,-106.14
1766218589434,-143.16,-30.86,-18.61,-386.631,-860.674,1632.109,-374.45,14.68,-111.20
1766218589444,-147.52,-33.79,-19.03,-346.592,-788.896,1429.961,-289.82,-23.07,-120.14
1766218589454,-146.45,-36.12,-17.97,-355.869,-808.428,1393.828,-150.13,-51.57,-135.89
1766218589464,-139.98,-37.69,-15.13,-390.537,-767.412,1414.824,-6.64,-91.38,-152.45
1766218589475,-130.13,-38.84,-11.30,-375.889,-652.178,1397.246,82.11,-130.51,-154.45
1766218589484,-118.63,-40.25,-7.28,-383.701,-623.369,1622.344,120.36,-157.94,-148.07
1766218589494,-108.79,-41.99,-2.85,-437.900,-628.740,1950.469,88.61,-185.82,-146.01
1766218589504,-103.48,-43.60,3.27,-439.854,-584.795,2130.645,16.68,-233.51,-138.26
1766218589514,-104.27,-43.03,13.85,-521.885,-615.068,2210.723,-43.51,-318.44,-113.57
1766218589524,-109.90,-39.07,27.92,-681.553,-694.170,1790.312,-99.14,-374.07,-102.57
1766218589534,-116.23,-31.12,43.33,-847.080,-757.158,1280.547,-116.76,-388.32,-106.51
1766218589544,-119.50,-20.14,60.13,-1013.584,-749.834,1091.582,-91.51,-398.88,-113.95
1766218589554,-116.60,-5.80,79.83,-1127.354,-714.678,725.371,-15.89,-413.13,-111.45
1766218589564,-106.16,7.52,101.96,-1059.971,-784.990,119.414,95.24,-389.07,-101.32
1766218589574,-91.73,11.36,120.42,-720.127,-939.287,-231.172,204.87,-318.38,-100.51
1766218589584,-74.62,9.21,132.73,-591.221,-1008.623,156.523,246.05,-227.63,-107.20
1766218589594,-57.72,5.63,140.54,-628.330,-856.768,859.160,197.43,-172.69,-101.89
1766218589604,-47.11,1.54,145.69,-695.713,-676.104,1534.941,72.80,-162.76,-81.51
1766218589614,-42.20,-2.75,150.22,-538.486,-418.779,1772.734,-37.26,-169.94,-49.70
1766218589624,-39.94,-7.43,156.30,-374.424,-239.092,1836.211,-87.14,-203.32,-6.76
1766218589634,-40.92,-10.65,164.15,-436.436,-372.393,1673.125,-108.95,-234.63,29.36
1766218589644,-45.22,-11.06,173.02,-676.670,-617.021,1505.645,-129.13,-247.69,42.55
1766218589654,-51.55,-9.78,-177.87,-854.404,-894.365,1339.141,-142.70,-249.51,30.67
1766218589664,-57.33,-7.80,-168.55,-886.631,-970.049,1152.129,-135.88,-249.07,15.74
1766218589675,-61.14,-6.06,-159.63,-831.943,-1017.412,1008.086,-104.70,-236.13,-5.89
1766218589684,-62.33,-4.17,-151.66,-805.088,-958.818,937.773,-69.39,-210.13,-19.33
1766218589694,-60.06,-3.16,-144.64,-787.510,-852.861,1135.039,-39.45,-188.38,-29.08
1766218589704,-56.75,-2.51,-138.08,-809.482,-744.463,1214.141,-30.26,-182.32,-30.51
1766218589714,-53.35,-1.43,-132.35,-783.604,-661.455,1128.203,-22.26,-164.88,-25.83
1766218589724,-49.63,0.28,-127.40,-754.307,-603.838,1158.965,-17.45,-139.63,-10.82
1766218589734,-46.32,1.92,-122.95,-775.303,-610.674,1432.891,-34.57,-118.82,2.80
1766218589744,-43.89,3.17,-118.22,-732.334,-538.896,1629.180,-64.20,-113.88,19.24
1766218589754,-41.95,4.39,-112.64,-730.869,-492.998,1666.289,-75.57,-120.88,39.05
1766218589764,-40.86,5.00,-106.28,-726.963,-609.209,1673.125,-76.95,-134.76,51.11
1766218589774,-41.74,6.71,-100.52,-850.498,-816.240,1472.441,-79.76,-124.44,49.24
1766218589784,-41.34,7.04,-94.92,-740.635,-820.635,1688.262,-71.26,-118.13,42.86
1766218589794,-40.61,6.78,-89.04,-880.771,-874.834,1765.410,-60.26,-138.13,33.99
1766218589804,-39.74,6.28,-83.55,-896.885,-878.252,1633.086,-44.26,-143.19,22.17
1766218589814,-38.08,5.50,-78.36,-893.467,-851.885,1605.254,-23.07,-146.13,14.55
1766218589824,-36.41,4.95,-73.61,-888.096,-826.982,1513.945,-11.14,-143.01,10.99
1766218589834,-34.39,5.37,-69.41,-855.869,-760.576,1402.129,3.68,-124.88,14.30
1766218589844,-32.04,6.38,-66.04,-934.971,-758.623,1493.926,13.43,-106.00,9.55
1766218589854,-29.31,6.89,-62.57,-882.725,-654.131,1621.367,9.61,-102.44,16.36
1766218589864,-27.41,7.57,-59.30,-857.822,-638.018,1660.918,-1.82,-91.19,22.36
1766218589874,-26.00,8.23,-55.79,-846.592,-596.025,1746.367,-14.89,-86.13,32.24
1766218589884,-25.27,8.81,-52.09,-852.451,-633.623,1796.660,-23.14,-84.13,39.92
1766218589894,-25.35,9.12,-48.28,-927.646,-722.002,1857.207,-30.89,-91.63,41.24
1766218589904,-25.79,9.60,-44.35,-1026.279,-762.529,1712.188,-28.57,-103.13,39.86
1766218589914,-25.46,10.12,-40.80,-982.334,-777.178,1640.898,-7.89,-96.38,34.17
1766218589924,-24.61,10.60,-37.54,-1004.307,-777.178,1679.961,2.87,-92.57,29.42
1766218589934,-23.31,11.27,-34.75,-982.822,-717.119,1657.500,11.30,-82.50,23.99
1766218589944,-21.55,11.79,-31.95,-1000.400,-656.084,1714.141,15.93,-82.07,24.86
1766218589954,-19.70,12.83,-29.07,-1063.389,-583.818,1650.664,17.99,-80.07,29.42
1766218589964,-18.11,13.86,-25.99,-994.053,-598.467,1590.605,21.86,-73.57,40.55
1766218589974,-18.63,15.35,-23.62,-952.061,-750.322,1530.059,6.74,-52.57,40.99
1766218589984,-20.74,17.58,-22.47,-944.736,-873.857,1491.973,-6.82,-24.38,29.86
1766218589994,-23.06,20.50,-22.54,-1004.307,-947.100,1492.949,-4.89,0.93,15.30
1766218590004,-24.07,23.51,-23.61,-1034.580,-900.225,1578.887,11.24,23.81,-1.26
1766218590014,-22.51,25.86,-24.36,-927.158,-629.229,1809.355,20.43,44.12,-4.95
1766218590024,-19.82,27.43,-24.02,-875.400,-479.326,1968.047,19.93,43.68,7.18
1766218590034,-18.02,27.36,-22.54,-914.463,-472.490,2193.145,-4.95,16.06,19.17
1766218590044,-17.33,25.94,-20.03,-968.662,-521.807,2200.957,-26.26,-21.88,32.42
1766218590054,-17.35,24.34,-17.48,-1025.303,-640.459,1967.559,-20.76,-47.88,36.42
1766218590064,-16.34,22.77,-14.92,-933.018,-654.131,1824.980,8.30,-52.38,39.05
1766218590074,-15.47,21.71,-12.61,-947.178,-718.096,1831.328,18.74,-48.57,40.30
1766218590084,-15.81,21.04,-10.99,-938.877,-784.502,1816.680,9.86,-41.32,33.24
1766218590094,-17.06,20.87,-10.18,-945.225,-835.283,1753.691,3.99,-33.38,21.11
1766218590104,-18.03,21.67,-10.20,-966.221,-805.498,1690.703,11.11,-15.57,7.36
1766218590114,-17.41,22.20,-10.16,-953.037,-696.611,1808.379,23.68,-10.26,2.11
1766218590124,-16.53,22.60,-10.07,-982.822,-651.689,1857.207,24.55,-11.63,1.05
1766218590134,-15.16,23.16,-9.81,-927.158,-559.893,1820.586,28.43,-4.51,4.68
1766218590144,-12.58,23.72,-8.78,-886.631,-402.666,1948.516,31.93,4.06,15.24
1766218590154,-10.11,23.43,-6.68,-933.994,-352.861,2084.258,22.86,-13.51,32.86
1766218590164,-8.52,22.83,-3.93,-961.338,-367.021,1999.785,11.68,-29.32,48.55
1766218590174,-6.87,22.40,-0.80,-914.463,-378.740,1786.895,22.11,-34.88,60.80
1766218590184,-4.12,23.03,2.78,-925.205,-382.158,1680.938,50.12,-21.63,74.99
1766218590194,-0.61,23.79,6.82,-861.240,-365.557,1739.043,68.24,-3.07,88.30
1766218590204,1.59,24.54,11.17,-893.955,-411.455,1931.426,51.43,11.18,100.43
1766218590214,1.28,25.63,15.89,-946.689,-432.451,2044.707,2.55,24.81,110.18
1766218590224,-0.20,26.05,20.61,-959.385,-520.830,2175.078,-18.45,19.81,113.24
1766218590234,-1.93,26.10,25.16,-1082.432,-579.424,2095.000,-21.82,-4.01,110.43
1766218590244,-2.23,25.87,29.70,-1246.006,-628.252,2004.180,6.36,-31.44,108.61
1766218590254,-2.04,25.39,33.17,-1204.014,-720.049,1831.816,38.18,-43.51,94.36
1766218590264,-0.25,25.27,36.31,-1255.771,-629.229,1757.109,67.80,-47.19,84.68
1766218590274,2.53,25.50,39.22,-1198.154,-526.201,1665.312,88.68,-39.76,80.43
1766218590284,5.95,26.77,42.35,-1153.232,-392.412,1579.375,95.80,-16.25,82.99
1766218590294,9.37,29.27,45.93,-1043.857,-301.592,1546.172,91.74,28.25,88.30
1766218590304,12.25,32.47,49.91,-1072.666,-283.037,1658.477,78.93,63.81,93.05
1766218590314,14.43,35.74,54.51,-1190.830,-264.482,1725.371,56.49,77.18,102.61
1766218590324,15.90,39.26,59.27,-1249.424,-277.666,1682.402,39.43,91.00,105.05
1766218590334,18.28,42.42,64.84,-1134.189,-236.162,1633.574,42.12,112.56,112.18
1766218590344,21.24,44.96,70.89,-1071.201,-239.092,1740.996,47.12,133.18,116.61
1766218590354,24.10,47.20,77.79,-996.494,-237.627,1873.320,34.74,161.31,122.49
1766218590364,24.60,48.20,83.83,-934.482,-322.100,2149.688,7.24,162.43,120.55
1766218590374,22.64,47.90,88.31,-995.029,-389.482,2380.156,-18.32,135.49,113.93
1766218590384,18.42,44.89,90.83,-1046.787,-430.010,2511.016,-37.07,69.12,108.74
1766218590394,14.09,41.02,92.00,-1059.971,-514.482,2274.199,-18.95,18.68,97.55
1766218590404,10.81,37.28,91.86,-1019.443,-613.115,2151.152,22.24,-5.88,74.99
1766218590414,8.23,33.19,90.76,-1035.557,-642.412,2136.016,44.99,-35.82,51.05
1766218590424,5.76,28.91,88.78,-975.010,-647.295,2039.336,54.99,-58.57,25.61
1766218590434,3.49,25.66,86.13,-962.314,-609.697,1901.641,58.55,-61.57,-0.57
1766218590444,2.52,23.38,83.76,-883.701,-429.521,1838.164,60.37,-49.38,-13.89
1766218590454,2.47,21.53,82.08,-837.803,-300.615,1882.109,55.99,-42.26,-11.95
1766218590464,1.65,20.41,80.76,-870.029,-259.111,1994.902,30.36,-33.01,-9.70
1766218590474,-0.27,19.30,79.84,-963.779,-238.604,2075.957,-2.32,-43.01,-5.89
1766218590484,-2.12,18.83,79.41,-1092.197,-239.092,1908.965,-10.51,-56.01,-0.26
1766218590494,-2.68,18.34,79.45,-1013.584,-224.443,1811.797,6.55,-55.94,4.86
1766218590504,-3.14,18.12,79.35,-1040.928,-302.080,1839.629,15.49,-53.51,3.86
1766218590514,-4.28,17.95,79.11,-1031.650,-334.307,1865.996,3.99,-50.44,0.93
1766218590524,-5.93,18.24,78.59,-1033.115,-339.189,1812.285,-7.57,-44.26,-6.20
1766218590534,-6.60,18.76,78.37,-981.846,-235.674,1807.402,-7.01,-33.38,-5.95
1766218590544,-6.65,19.00,78.50,-933.506,-195.146,1894.316,-4.70,-27.82,-1.76
1766218590554,-9.25,21.58,72.87,-933.994,-237.627,1165.801,2.12,-15.88,-108.57
1766218590564,-13.48,24.22,65.93,-1135.166,-781.084,1262.969,39.43,0.25,-107.57
1766218590574,-0.61,20.04,70.46,-55.576,1033.369,1621.367,62.49,-18.38,3.05
1766218590584,-2.03,22.23,69.95,-1123.447,-264.482,1909.941,0.68,-0.25,-0.14
1766218590594,-3.20,24.52,69.52,-1121.494,-260.576,1865.020,0.24,9.24,0.61
1766218590604,-4.19,25.63,69.06,-1121.006,-261.553,1891.387,-0.20,-3.26,-1.20
1766218590614,-4.91,26.23,68.80,-1123.447,-258.623,1883.574,-0.01,-9.44,0.55
1766218590624,-5.12,26.50,69.46,-1121.494,-261.064,1891.387,-0.20,-14.44,16.05
1766218590634,-5.62,26.61,69.33,-1121.494,-261.064,1899.199,0.05,-14.76,0.93
1766218590644,-6.05,26.56,69.17,-1121.006,-261.553,1890.410,0.18,-17.75,-0.82
1766218590654,-6.36,26.40,69.09,-1121.494,-259.111,1906.035,0.05,-19.63,-0.70
1766218590664,-6.25,26.42,69.87,-1120.518,-261.064,1916.289,-0.07,-17.50,14.93
1766218590674,-6.53,26.53,69.86,-1121.494,-262.529,1922.637,-0.38,-13.76,0.93
1766218590684,-6.76,26.69,69.85,-1121.494,-263.018,1910.430,-0.26,-12.76,0.61
1766218590694,-6.94,26.74,69.79,-1120.518,-262.529,1914.824,0.30,-13.88,-0.95
1766218590704,-6.67,26.85,70.64,-1126.865,-258.135,1919.219,0.05,-14.82,15.24
1766218590714,-6.83,27.07,70.60,-1121.494,-257.646,1929.961,0.12,-8.88,-0.14
1766218590724,-6.96,27.25,70.61,-1124.912,-260.576,1924.590,0.18,-9.38,0.55
1766218590734,-7.11,27.62,70.52,-1121.006,-260.576,1943.633,-0.01,-3.13,-0.89
1766218590744,-7.62,28.01,69.62,-1121.006,-261.064,1924.102,0.18,-0.13,-15.76
1766218590754,-7.64,28.46,69.58,-1121.982,-262.529,1930.449,0.30,1.31,-0.32
1766218590764,-7.63,28.89,69.61,-1121.006,-262.041,1927.031,0.24,2.49,0.93
1766218590774,-7.64,29.16,69.60,-1124.912,-262.041,1917.754,0.30,0.43,0.05
1766218590784,-8.06,29.17,68.74,-1124.912,-262.041,1927.520,0.12,-1.13,-15.64
1766218590794,-7.99,29.40,68.74,-1121.494,-259.111,1930.938,0.05,2.00,-0.64
1766218590804,-7.95,29.61,68.74,-1121.006,-263.018,1924.590,-0.01,2.24,-0.08
1766218590814,-7.88,29.86,68.79,-1123.936,-259.600,1925.078,-0.07,3.56,0.68
1766218590824,-7.86,30.02,68.80,-1121.982,-262.041,1918.242,-0.20,2.87,0.43
1766218590834,-7.81,30.10,68.82,-1121.006,-258.135,1917.754,0.18,1.81,0.11
1766218590844,-7.78,30.11,68.81,-1125.889,-260.576,1919.707,0.30,0.56,-0.32
1766218590854,-7.74,30.10,68.85,-1123.447,-259.111,1922.148,-0.01,0.25,0.55
1766218590864,-7.70,30.06,68.88,-1125.400,-259.111,1922.148,0.30,-0.44,0.24
1766218590874,-7.69,30.05,68.89,-1125.889,-261.553,1923.613,0.18,-0.07,0.17
1766218590884,-7.69,30.03,68.87,-1122.471,-261.064,1923.613,0.12,0.25,-0.32
1766218590894,-7.68,29.95,68.88,-1121.006,-259.600,1926.543,0.05,-0.88,-0.01
1766218590904,-7.66,29.90,68.87,-1121.494,-261.064,1922.637,0.49,-0.88,-0.14
1766218590914,-7.63,29.86,68.91,-1122.471,-258.623,1924.590,0.24,-0.94,0.43
1766218590924,-7.64,29.81,68.91,-1120.518,-261.064,1923.613,-0.13,-1.32,0.05
1766218590934,-7.67,29.80,68.89,-1126.377,-261.064,1925.566,-0.20,-0.88,-0.45
1766218590944,-7.69,29.84,68.88,-1121.982,-260.576,1926.055,-0.13,0.37,-0.20
1766218590954,-7.70,29.91,68.87,-1120.518,-262.041,1925.078,-0.01,1.50,0.11
1766218590964,-7.68,30.01,68.87,-1121.006,-260.088,1925.078,0.24,2.06,0.24
1766218590974,-7.69,30.07,68.84,-1121.006,-261.553,1922.148,0.24,1.87,-0.26
1766218590984,-7.69,30.13,68.82,-1122.471,-259.111,1924.590,-0.01,1.87,-0.20
1766218590994,-7.69,30.19,68.79,-1123.447,-259.600,1918.242,0.24,1.87,-0.26
1766218591004,-7.67,30.21,68.79,-1121.006,-262.529,1919.707,0.55,1.43,0.43
1766218591014,-7.62,30.32,68.76,-1123.936,-263.506,1913.359,1.87,2.87,0.05
1766218591024,-7.48,30.53,68.69,-1122.471,-265.947,1894.316,4.80,4.56,-0.01
1766218591034,-6.53,31.15,68.51,-1121.982,-283.037,1810.820,26.30,9.24,0.49
1766218591044,-5.33,31.74,68.21,-1126.865,-287.920,1871.855,35.87,14.49,0.30
1766218591054,-3.79,32.60,67.81,-1116.123,-271.807,1818.633,46.87,20.50,0.80
1766218591064,-1.97,33.47,67.13,-1094.639,-303.545,1920.195,63.18,32.68,0.61
1766218591074,0.86,36.13,66.10,-1102.451,-356.768,1714.629,102.93,59.93,2.17
1766218591084,3.41,40.53,63.76,-1184.482,-284.502,1525.176,117.86,84.31,-20.33
1766218591094,4.94,46.11,61.19,-1190.342,-447.100,1692.168,120.55,138.37,-8.76
1766218591104,3.62,53.20,58.85,-1283.604,-239.092,1959.746,40.93,202.12,-19.51
1766218591114,-1.50,59.42,56.33,-1053.135,-244.463,1766.387,-35.32,225.31,-5.64
1766218591124,-8.35,65.70,53.36,-1445.225,-273.271,1840.605,-73.01,224.93,3.24
1766218591134,-23.66,69.84,42.58,-1194.736,-545.244,1752.227,-97.76,235.49,-8.89
1766218591144,-39.53,72.40,28.61,-1648.350,-209.307,1913.848,-78.95,223.31,-53.33
1766218591155,-100.28,77.89,-46.08,-1439.365,-105.791,1095.977,197.80,466.74,-75.14
1766218591165,-101.18,73.69,-66.74,-1912.021,-201.982,1163.359,398.11,264.43,-86.07
1766218591174,-66.52,65.38,-61.20,-1949.619,-699.541,1113.555,614.55,86.62,-122.14
1766218591184,-25.00,53.60,-68.94,-1878.330,-601.396,1180.449,887.74,-2.82,-167.14
1766218591194,18.94,34.89,-90.39,-1460.361,-795.732,5070.098,941.99,-162.38,-164.01
1766218591204,48.94,29.11,-121.13,-973.057,999.189,3533.965,787.80,-301.69,-287.08
1766218591214,64.80,26.82,-156.53,-43.369,-413.896,3353.789,789.55,-454.07,-225.20
1766218591225,63.22,30.22,170.44,-1847.568,-849.443,3462.188,498.43,-480.32,-199.07
1766218591235,44.51,24.58,138.19,-1698.643,-992.510,3081.328,121.74,-472.26,-184.32
1766218591245,22.63,9.46,114.48,-1474.521,-839.678,2273.711,-143.76,-495.63,-190.70
1766218591255,1.53,-0.99,103.49,-1004.307,-446.123,1041.777,-317.89,-370.76,-163.89
1766218591264,-16.34,-4.44,99.02,-915.928,-193.682,613.555,-349.57,-268.13,-131.64
1766218591275,-29.20,-4.34,97.47,-1065.342,-316.729,441.191,-238.70,-211.69,-114.57
1766218591284,-35.04,-0.97,97.15,-923.252,-307.451,192.168,-76.64,-148.32,-94.95
1766218591294,-30.51,4.77,97.46,-716.709,-315.264,335.723,111.99,-79.82,-60.01
1766218591304,-19.51,13.96,98.56,-1025.303,-339.189,582.793,220.62,-5.01,-18.83
1766218591314,-11.92,24.25,98.40,-1246.494,-570.635,1143.340,181.30,88.25,2.42
1766218591324,-13.34,34.21,96.53,-860.264,-734.697,1353.301,47.93,181.87,23.49
1766218591334,-25.51,44.75,91.22,-579.502,-891.924,1319.609,-112.45,277.43,33.42
1766218591344,-46.37,56.38,79.07,-601.475,-890.459,1201.445,-204.88,363.56,55.17
1766218591354,-76.11,65.01,54.73,-787.998,-849.443,1089.141,-194.57,401.81,79.68
1766218591364,-111.76,67.30,20.81,-905.674,-809.893,1177.031,-156.13,426.06,107.55
1766218591374,-138.52,64.18,-8.58,-1017.002,-761.064,1226.836,-74.82,429.49,129.93
1766218591384,-155.04,58.42,-31.51,-1329.502,-760.088,1366.484,0.80,440.43,153.86
1766218591394,-163.21,50.29,-47.94,-1691.807,-819.170,1514.922,36.80,460.18,151.68
1766218591404,-163.00,43.22,-56.51,-1644.443,-927.080,1924.102,50.55,418.93,111.18
1766218591414,-159.15,38.94,-63.11,-1758.213,-838.701,1816.191,80.36,359.43,89.93
1766218591424,-151.91,35.80,-69.13,-1833.896,-778.154,1731.719,130.55,338.87,67.36
1766218591434,-141.86,34.91,-75.69,-1830.479,-765.947,1908.477,176.93,303.31,69.18
1766218591444,-128.93,35.90,-81.13,-1818.271,-885.088,1913.359,202.49,257.62,56.61
1766218591455,-115.99,36.01,-87.79,-1622.471,-1077.471,1892.852,190.68,274.62,40.92
1766218591465,-104.82,35.09,-95.11,-1568.271,-1122.393,1997.344,145.74,280.56,-7.32
1766218591475,-96.54,32.09,-104.54,-1056.064,-1099.443,2053.984,82.18,307.87,-45.39
1766218591484,-88.83,28.28,-115.40,-823.154,-1031.572,2037.383,63.12,311.99,-81.14
1766218591494,-81.02,25.21,-128.07,-773.838,-934.893,1971.953,66.11,315.62,-107.51
1766218591504,-71.72,23.48,-142.01,-820.225,-825.029,2011.992,96.86,309.87,-136.20
1766218591515,-60.46,22.84,-156.00,-736.240,-695.146,2062.285,135.99,283.99,-159.82
1766218591525,-48.12,23.56,-169.74,-590.732,-568.682,2095.000,174.80,258.81,-171.45
1766218591534,-35.44,26.71,177.34,-456.943,-334.795,1915.801,213.49,249.62,-164.64
1766218591544,-25.43,32.96,164.80,-888.096,-249.346,2140.410,229.68,245.06,-172.39
1766218591554,-15.87,36.24,156.45,-818.760,-84.307,2558.379,217.49,178.49,-138.76
1766218591564,-7.33,34.42,152.41,-448.154,-7.158,2543.730,172.99,87.12,-88.51
1766218591574,-1.46,29.85,151.04,-164.463,52.900,2424.590,106.05,37.37,-39.26
1766218591584,1.36,25.30,153.46,-149.814,108.564,2408.477,18.93,20.81,37.30
1766218591594,0.69,21.15,161.31,-62.900,150.557,2486.602,-84.32,18.62,142.74
1766218591604,-6.73,18.74,173.22,-366.611,-33.037,2704.863,-225.20,-18.94,226.80
1766218591615,-17.43,15.84,-173.36,-1786.533,-288.408,2704.863,-306.01,-206.07,236.11
1766218591625,-22.46,13.91,-156.59,-2440.830,-296.221,1670.684,-218.88,-329.44,252.93
1766218591635,-19.68,8.30,-136.07,-1760.654,-388.506,1284.941,-42.20,-411.01,306.05
1766218591645,-13.13,-3.43,-117.06,-1104.404,-722.002,1188.262,171.80,-462.26,314.55
1766218591654,-6.72,-14.38,-97.47,-511.143,-804.033,938.262,340.49,-396.07,380.49
1766218591665,-4.10,-20.80,-78.30,-842.197,-1972.002,2397.734,338.80,-286.26,360.61
1766218591675,-8.99,-28.90,-62.67,-1617.588,-2798.662,3100.859,177.99,-351.19,233.74
1766218591685,-23.14,-40.42,-50.93,-2227.939,-3235.186,2992.461,-33.32,-449.32,52.92
1766218591695,-46.94,-52.60,-34.19,-2071.689,-2991.045,2003.691,-142.13,-494.69,-78.51
1766218591705,-79.32,-60.12,-3.18,-2193.760,-2567.705,1131.621,-90.76,-497.07,-168.76
1766218591714,-113.13,-58.40,36.41,-1900.791,-2304.033,7.109,27.55,-416.63,-235.70
1766218591725,-126.31,-53.01,65.55,-1662.021,-2204.424,338.164,174.68,-341.57,-302.45
1766218591735,-126.94,-48.95,89.38,-1419.346,-1846.025,409.941,281.55,-272.44,-343.64
1766218591745,-121.23,-47.86,109.29,-1215.732,-1432.939,501.738,314.36,-210.88,-361.33
1766218591755,-112.76,-50.57,122.54,-1178.135,-1138.018,522.734,274.11,-117.25,-366.33
1766218591764,-100.07,-57.26,123.05,-1072.666,-885.088,664.336,171.55,0.81,-368.39
1766218591775,-73.62,-64.61,100.48,-1026.768,-625.322,1012.480,42.24,110.62,-354.39
1766218591784,-34.09,-61.63,56.39,-932.041,-310.381,1243.438,-76.45,192.68,-309.76
1766218591795,-14.96,-44.17,27.09,-772.861,-115.557,1533.965,-155.88,271.93,-241.20
1766218591804,-14.30,-19.90,12.15,-629.795,-40.850,1629.180,-203.07,349.18,-160.20
1766218591814,-21.31,6.15,-0.06,-619.053,-124.834,1955.840,-215.95,431.24,-104.82
1766218591824,-31.08,22.14,-8.06,-614.170,-196.123,2869.902,-230.82,334.12,-16.51
1766218591834,-41.71,32.46,-12.84,-476.475,-397.295,2449.980,-256.01,275.43,49.74
1766218591844,-50.99,38.18,-13.72,-371.494,-760.576,2518.828,-267.20,202.43,97.93
1766218591855,-58.13,42.48,-12.05,-408.604,-1053.545,2129.180,-249.32,152.74,134.11
1766218591864,-68.25,45.43,-15.07,-949.619,-1614.092,1702.910,-206.26,146.93,86.86
1766218591875,-78.14,45.18,-20.32,-1104.893,-1958.818,1586.699,-174.57,147.93,35.99
1766218591885,-95.51,39.97,-35.34,-1165.928,-2255.693,783.477,-163.01,244.18,-52.33
1766218591895,-104.45,29.73,-45.95,-1135.166,-2396.318,1178.008,-151.57,277.18,-128.14
1766218591905,-108.20,16.02,-54.85,-1390.049,-2486.650,1228.789,-135.20,304.68,-229.07
1766218591915,-106.14,0.47,-63.31,-1264.072,-2192.705,1417.266,-110.20,312.87,-308.89
1766218591925,-98.47,-14.53,-74.87,-1136.143,-1759.600,1420.195,-71.70,309.24,-357.39
1766218591935,-83.51,-26.39,-93.86,-996.982,-1296.221,1444.609,-35.45,311.06,-376.70
1766218591945,-61.31,-30.27,-122.36,-760.654,-818.682,1534.453,-24.51,314.31,-357.89
1766218591955,-40.74,-22.93,-152.59,-492.100,-414.385,1618.926,-35.13,321.74,-310.64
1766218591965,-29.82,-10.47,-175.18,-181.064,-85.771,1767.852,-63.07,318.74,-237.95
1766218591974,-27.94,2.28,170.44,-47.764,-37.432,1855.742,-105.01,318.81,-141.07
1766218591984,-31.77,12.68,160.68,-56.553,-181.963,1968.535,-153.57,298.43,-71.76
1766218591994,-39.39,20.93,153.62,-114.170,-375.811,1959.746,-209.51,273.06,-13.64
1766218592004,-49.43,26.42,148.14,-58.506,-615.557,1812.285,-254.07,242.37,27.67
1766218592014,-60.82,30.28,143.04,-153.721,-882.158,1589.629,-274.14,214.93,49.67
1766218592024,-72.88,31.51,136.69,-85.361,-1144.854,1286.895,-264.32,212.56,53.30
1766218592034,-83.02,29.97,129.50,-8.701,-1364.580,1125.273,-223.88,211.68,44.92
1766218592044,-89.49,25.80,121.63,-82.432,-1504.717,1042.266,-164.07,218.43,2.11
1766218592054,-90.94,20.95,113.59,-77.549,-1525.225,1105.742,-96.82,225.18,-17.58
1766218592064,-87.59,15.67,105.70,-20.908,-1399.736,1324.492,-42.26,222.18,-50.26
1766218592074,-80.61,11.02,98.04,-55.576,-1255.693,1685.332,-2.57,203.68,-84.76
1766218592084,-72.52,7.05,90.52,32.314,-967.119,2005.645,-3.95,181.31,-100.26
1766218592094,-65.39,1.93,85.61,348.232,-900.225,2298.125,-32.95,101.56,-97.14
1766218592104,-59.32,-2.79,82.41,369.229,-689.287,2128.203,-56.51,42.56,-81.89
1766218592114,-53.38,-7.15,81.00,357.998,-522.783,1881.133,-51.01,-11.88,-59.26
1766218592124,-46.82,-11.10,81.20,351.650,-441.240,1636.992,-16.45,-53.63,-31.83
1766218592134,-41.47,-13.53,81.46,438.564,-544.756,1591.094,-1.88,-41.19,-3.51
1766218592144,-40.42,-14.16,82.28,318.447,-752.764,1141.387,-8.89,-27.25,8.86
1766218592154,-42.52,-12.76,82.72,219.814,-933.916,1048.613,-36.45,-1.25,9.24
1766218592164,-46.03,-10.28,81.91,167.568,-1036.943,1007.109,-62.45,30.87,1.80
1766218592174,-48.87,-7.94,79.73,149.990,-1066.240,1163.848,-83.14,49.31,-9.32
1766218592184,-51.24,-6.64,76.88,210.049,-1054.521,1346.465,-105.64,55.49,-16.33
1766218592194,-53.77,-7.25,74.02,349.209,-1003.740,1352.812,-125.14,48.31,-24.08
1766218592204,-55.31,-8.74,71.07,399.990,-893.389,1212.188,-115.89,45.12,-27.08
1766218592214,-54.30,-10.02,67.91,401.943,-763.994,1179.961,-83.32,46.74,-22.33
1766218592224,-51.78,-10.76,64.87,434.170,-732.744,1381.621,-66.76,42.56,-15.32
1766218592234,-50.08,-10.56,62.43,340.420,-777.666,1542.266,-79.07,29.75,-11.14
1766218592244,-50.53,-10.68,60.66,326.748,-811.846,1597.441,-114.95,13.99,-11.26
1766218592254,-53.01,-10.85,59.11,256.924,-824.053,1448.516,-147.70,5.87,-16.70
1766218592264,-56.67,-11.06,57.57,231.533,-852.861,1257.109,-163.76,5.68,-19.51
1766218592274,-61.00,-10.91,55.75,207.119,-874.834,1001.738,-165.01,17.43,-18.01
1766218592284,-65.06,-11.31,52.95,260.342,-942.705,782.012,-142.70,41.31,-26.01
1766218592294,-67.01,-12.20,48.61,296.963,-983.721,752.227,-113.51,68.00,-39.83
1766218592304,-66.37,-13.62,42.55,335.049,-983.721,909.453,-98.64,90.68,-58.58
1766218592314,-64.21,-14.89,34.86,304.775,-934.893,1128.203,-105.14,107.37,-79.64
1766218592324,-62.04,-15.90,26.21,263.760,-866.533,1398.223,-134.82,109.68,-95.64
1766218592334,-60.62,-17.80,17.27,353.604,-735.186,1553.984,-170.20,98.93,-104.95
1766218592344,-59.65,-20.59,8.37,459.561,-622.881,1574.492,-190.13,82.68,-108.64
1766218592354,-58.33,-22.83,-0.49,389.736,-552.568,1555.938,-191.88,65.93,-108.51
1766218592364,-56.78,-24.55,-8.96,323.818,-596.025,1645.781,-183.32,45.06,-111.76
1766218592374,-55.49,-26.64,-16.89,328.213,-678.057,1682.891,-175.38,21.62,-121.64
1766218592384,-54.31,-29.59,-24.51,314.541,-767.900,1690.215,-166.01,-6.19,-144.07
1766218592395,-52.39,-33.94,-32.28,338.955,-783.525,1689.238,-152.01,-37.26,-171.76
1766218592405,-49.51,-39.17,-40.59,331.143,-786.455,1602.812,-134.32,-67.38,-199.51
1766218592415,-43.58,-44.81,-51.56,252.529,-679.521,1532.500,-113.26,-88.88,-237.32
1766218592425,-32.68,-50.26,-67.19,221.768,-437.822,1464.141,-94.26,-110.94,-263.76
1766218592435,-15.83,-53.70,-88.67,195.889,-209.795,1421.660,-69.20,-132.44,-279.01
1766218592444,2.03,-53.72,-111.79,219.814,-118.486,1313.262,-43.63,-150.57,-276.95
1766218592455,14.52,-51.23,-131.72,214.932,-171.709,1166.289,-38.20,-162.19,-276.89
1766218592464,20.98,-47.89,-148.40,186.611,-234.697,940.703,-46.32,-162.51,-284.58
1766218592474,24.04,-43.68,-163.53,158.291,-213.701,777.129,-52.63,-148.38,-293.89
1766218592484,27.37,-38.82,-178.52,184.170,-77.471,610.625,-38.70,-127.75,-295.51
1766218592494,33.23,-32.40,166.57,186.611,85.127,531.523,0.37,-109.32,-288.95
1766218592504,38.97,-23.23,153.80,118.740,254.561,643.340,37.55,-91.57,-272.08
1766218592514,42.68,-15.26,143.13,160.244,414.229,807.402,51.68,-78.63,-249.64
1766218592524,43.53,-8.83,133.34,165.127,488.936,971.465,41.80,-77.19,-237.07
1766218592534,43.47,-4.85,124.27,198.330,602.217,947.539,23.61,-74.63,-207.51
1766218592544,42.72,-2.93,116.92,189.541,691.572,939.727,4.68,-65.50,-158.07
1766218592554,41.06,-2.85,111.24,191.494,721.846,984.648,-12.89,-60.26,-110.64
1766218592564,39.73,-5.41,107.23,277.920,739.424,979.766,-16.26,-62.88,-60.14
1766218592576,38.89,-8.83,104.97,256.436,662.275,922.148,-5.32,-61.57,-14.39
1766218592584,36.30,-12.05,104.13,199.795,431.807,929.961,3.68,-62.01,11.74
1766218592645,33.34,-15.13,104.14,190.518,244.307,782.988,18.86,-57.63,17.49
1766218592648,31.03,-16.10,104.63,103.115,142.256,678.008,45.24,-46.76,12.05
1766218592651,29.48,-15.33,105.30,65.518,135.908,732.207,58.37,-31.13,5.11
1766218592654,28.72,-15.13,106.12,134.854,219.404,824.980,50.80,-19.88,10.43
1766218592657,28.16,-15.27,107.34,170.986,267.744,821.074,40.43,-11.57,20.05
1766218592660,29.25,-15.53,109.07,171.963,302.900,750.762,58.55,-4.32,33.11
1766218592663,32.76,-16.24,111.53,193.936,345.381,724.395,101.61,3.18,48.36
1766218592666,38.72,-17.72,115.06,220.791,376.631,765.898,169.80,6.43,67.68
1766218592674,47.58,-20.86,119.42,278.896,390.791,808.379,261.30,2.68,85.05
1766218592684,59.87,-25.76,124.52,287.197,364.424,839.629,384.93,-8.19,104.61
1766218592694,75.01,-32.42,130.53,219.326,281.416,923.125,526.55,-21.38,131.93
1766218592704,90.87,-40.74,137.00,107.510,125.654,1040.312,618.74,-31.57,151.74
1766218592714,108.70,-51.01,142.52,7.900,-24.248,1194.609,677.24,-34.57,160.49
1766218592724,132.76,-63.39,141.84,-16.025,-215.654,1394.316,687.99,-49.19,163.55
1766218592734,-177.59,-73.95,116.60,-28.721,-389.482,1501.738,665.74,-68.25,165.30
1766218592744,-99.87,-69.43,64.46,-73.643,-540.850,1558.379,616.55,-80.94,174.11
1766218592754,-62.79,-52.91,55.12,-92.197,-681.963,1606.230,552.36,-92.57,184.18
1766218592766,-40.77,-37.46,64.06,-472.080,-1036.943,1652.129,479.05,-108.13,144.36
1766218592775,-24.17,-29.17,75.95,-245.029,-1055.498,1717.559,401.74,-126.50,132.30
1766218592785,-11.31,-26.03,88.20,-257.236,-1106.279,1714.141,377.68,-139.07,129.55
1766218592794,-3.80,-25.59,99.71,-243.564,-1127.764,1720.977,320.55,-138.19,132.30
1766218592805,-0.62,-24.95,110.75,-320.225,-1163.408,1581.816,273.05,-118.25,130.30
1766218592814,0.58,-23.82,121.87,-286.045,-1163.408,1368.926,258.36,-93.13,132.18
1766218592824,1.64,-21.55,132.91,-249.912,-1196.611,1365.020,258.36,-55.94,135.30
1766218592834,3.21,-17.33,143.15,-330.479,-1170.244,1430.938,251.74,-15.69,132.18
1766218592844,4.94,-13.41,151.98,-221.592,-1166.338,1740.508,228.43,7.12,125.49
1766218592854,5.49,-9.24,159.73,-421.787,-1272.295,1909.941,195.62,7.49,118.11
1766218592864,4.75,-6.47,165.68,-489.170,-1359.697,2019.805,159.93,-15.63,97.99
1766218592874,3.13,-5.06,170.12,-515.049,-1382.646,1933.379,137.43,-42.57,77.55
1766218592884,1.78,-4.04,173.63,-447.666,-1348.955,1737.090,142.74,-45.19,60.86
1766218592894,2.46,-3.39,176.78,-396.396,-1227.373,1705.352,172.18,-45.69,55.74
1766218592904,5.58,-3.45,-179.68,-319.248,-1127.275,1764.922,215.43,-45.38,67.68
1766218592914,9.06,-3.79,-175.77,-311.924,-1148.760,1910.430,229.62,-42.69,76.99
1766218592924,10.99,-4.40,-171.59,-306.553,-1182.451,2019.805,208.49,-43.26,84.43
1766218592934,10.37,-4.63,-167.13,-259.678,-1241.045,1998.320,167.99,-32.26,87.36
1766218592944,6.84,-3.43,-162.70,-290.439,-1330.400,2048.125,107.61,-11.07,82.55
1766218592954,1.15,-1.01,-158.82,-321.689,-1393.389,2045.195,51.18,6.68,73.99
1766218592964,-5.24,1.81,-156.05,-377.354,-1423.662,2039.824,14.86,11.18,59.74
1766218592974,-10.79,4.90,-154.27,-489.170,-1365.068,1976.836,4.36,12.12,47.17
1766218592984,-14.10,7.89,-152.69,-435.947,-1221.025,1936.309,18.61,23.87,48.80
1766218592994,-15.30,10.00,-150.83,-403.232,-1165.361,2064.238,34.87,21.43,55.17
1766218593004,-16.35,11.31,-148.46,-472.568,-1182.451,2231.230,22.68,6.24,62.86
1766218593014,-19.51,11.44,-145.85,-523.350,-1275.713,2375.762,-27.26,-17.63,62.17
1766218593025,-26.15,11.20,-143.63,-504.795,-1354.326,2298.125,-104.01,-25.38,51.99
1766218593035,-34.60,10.47,-141.61,-425.693,-1399.248,2238.555,-164.13,-30.75,40.17
1766218593045,-43.59,10.11,-140.08,-506.748,-1449.541,2082.793,-198.38,-30.57,21.99
1766218593054,-51.75,9.17,-138.88,-512.119,-1499.834,2034.941,-210.76,-33.01,-2.45
1766218593065,-58.57,8.51,-137.91,-695.225,-1503.740,1914.336,-206.63,-36.88,-27.70
1766218593075,-62.96,7.23,-136.35,-670.811,-1451.494,1809.844,-181.01,-49.82,-44.01
1766218593085,-64.75,4.89,-134.20,-615.635,-1443.193,1700.469,-137.76,-68.94,-64.07
1766218593095,-63.91,2.29,-131.01,-716.221,-1329.424,1505.156,-83.01,-105.00,-84.01
1766218593104,-61.20,0.63,-129.73,-638.096,-1168.779,992.461,-3.57,-76.69,-99.45
1766218593114,-52.51,-2.48,-131.66,-171.299,-911.943,1046.660,84.86,-18.13,-98.14
1766218593124,-40.24,-2.16,-134.21,-308.018,-637.041,1265.410,134.37,-2.44,-71.51
1766218593134,-29.88,-0.20,-136.38,-255.283,-582.842,1454.863,128.99,17.25,-37.33
1766218593144,-24.41,3.27,-137.42,-234.775,-591.143,1608.672,69.93,42.62,-1.26
1766218593154,-24.50,7.59,-137.30,-226.963,-657.549,1711.211,-17.51,65.43,32.99
1766218593164,-28.84,12.19,-136.36,-189.365,-801.592,1711.699,-93.64,83.18,66.43
1766218593174,-34.99,16.69,-135.38,-252.842,-1007.646,1692.168,-129.51,85.62,82.05
1766218593184,-41.58,20.61,-134.79,-395.420,-1255.693,1611.602,-134.26,74.68,80.93
1766218593194,-48.41,23.59,-135.52,-502.842,-1507.158,1468.535,-123.82,73.31,63.36
1766218593205,-56.88,25.96,-139.89,-734.775,-1663.408,1457.305,-139.13,112.68,12.80
1766218593214,-64.80,27.34,-144.24,-500.400,-1238.604,1970.977,-220.70,153.43,8.24
1766218593225,-77.18,27.94,-146.94,-396.885,-1058.916,2315.215,-386.82,144.81,20.86
1766218593235,-96.29,28.38,-149.17,-577.061,-1088.213,2011.992,-568.32,134.49,26.30
1766218593245,-119.66,27.57,-150.83,-430.576,-1016.436,1532.988,-700.07,142.18,35.24
1766218593255,-145.56,25.39,-151.87,-497.471,-1031.572,1153.594,-763.07,167.18,30.30
1766218593265,-173.43,23.46,-151.07,-507.236,-852.861,1276.152,-789.20,180.31,27.05
1766218593274,151.53,23.70,-149.04,-455.967,-670.732,1645.293,-806.07,152.99,40.24
1766218593284,102.60,28.45,-149.08,-467.197,-592.607,1673.613,-830.57,96.62,42.30
1766218593294,40.56,34.26,-157.67,-486.240,-512.041,1116.484,-834.39,58.99,29.92
1766218593304,-13.70,36.73,-168.21,-407.139,-362.627,488.555,-791.82,66.75,17.49
1766218593314,-55.15,44.29,-178.80,-340.244,-217.607,70.098,-704.70,122.68,15.30
1766218593324,-96.78,55.19,161.65,-404.697,-17.900,-182.832,-582.64,173.43,32.55
1766218593334,-123.18,63.03,150.56,-179.111,56.318,225.371,-494.51,226.87,55.86
1766218593344,-147.25,66.20,141.63,-228.428,-23.760,834.258,-449.89,246.06,73.93
1766218593354,-171.30,67.67,133.64,-310.947,-165.361,1040.312,-430.89,241.93,80.74
1766218593364,172.68,68.10,134.77,-359.775,-428.057,1213.652,-413.51,232.12,56.55
1766218593374,167.64,70.05,145.90,-291.904,-552.080,1276.641,-357.26,201.06,4.86
1766218593384,174.23,74.37,164.55,-399.326,-484.697,1554.473,-250.45,161.68,-56.58
1766218593395,-153.33,79.24,-156.76,-246.494,-289.873,1781.523,-147.32,108.31,-113.07
1766218593404,-82.41,79.34,-82.83,-143.467,113.936,1838.164,-93.82,27.43,-135.20
1766218593414,-49.03,69.65,-44.10,-262.607,299.971,1834.746,-104.32,-32.69,-156.39
1766218593424,-39.15,61.10,-28.59,-182.041,594.893,1168.242,-169.70,-24.07,-154.20
1766218593434,-31.66,57.91,-17.10,-47.764,838.057,646.270,-171.76,7.93,-125.70
1766218593444,-20.63,57.79,-2.95,9.854,1122.725,710.234,-153.63,43.93,-48.58
1766218593454,-7.99,55.60,12.95,28.896,1052.412,1007.109,-136.88,60.18,2.36
1766218593464,-2.86,50.17,23.43,-96.104,720.869,1459.258,-147.57,55.43,20.61
1766218593474,-4.06,43.52,28.79,-142.490,398.115,1570.586,-154.32,33.68,14.43
1766218593484,-5.91,36.41,31.44,-161.045,269.697,1446.562,-121.20,1.18,-8.20
1766218593494,-4.51,29.76,33.41,-120.518,394.697,1299.102,-72.95,-15.32,-27.33
1766218593504,-1.05,24.29,35.29,-81.943,562.666,1196.074,-55.88,-15.69,-28.33
1766218593514,2.58,20.03,37.09,-57.041,694.014,1140.898,-63.88,-9.19,-21.14
1766218593524,5.80,17.14,39.04,-57.041,772.139,1117.949,-74.07,4.06,-8.20
1766218593534,7.63,14.73,41.18,-41.904,765.791,1214.629,-83.70,11.74,7.68
1766218593544,8.13,12.82,43.21,-64.365,660.322,1275.664,-83.64,13.31,16.92
1766218593554,7.32,11.15,44.86,-65.830,496.748,1302.031,-79.01,11.87,18.61
1766218593564,6.14,10.06,45.87,-80.967,365.889,1270.293,-66.39,12.49,11.05
1766218593574,5.70,9.42,46.21,-100.010,337.080,1315.703,-46.57,12.62,-0.95
1766218593584,6.16,8.76,46.08,-111.240,365.889,1400.176,-29.32,7.37,-9.82
1766218593594,7.19,8.00,45.44,-118.564,430.342,1460.234,-21.57,0.87,-20.39
1766218593604,8.91,6.92,44.77,-100.986,548.018,1453.887,-21.26,-7.01,-21.39
1766218593614,11.92,5.62,44.24,-68.760,627.607,1318.145,-8.57,-12.26,-18.01
1766218593624,16.42,4.59,43.93,-63.389,653.975,1236.113,24.18,-11.44,-11.70
1766218593637,18.75,4.01,43.53,-93.174,542.158,1357.207,25.43,-10.32,-7.57
1766218593644,18.48,4.24,42.80,-118.564,424.971,1304.961,-0.95,-4.26,-14.32
1766218593654,18.18,4.80,41.89,-111.729,411.299,1238.555,-4.07,2.49,-20.58
1766218593664,18.61,5.28,40.77,-109.775,417.158,1288.359,12.36,2.99,-25.45
1766218593674,19.51,5.80,39.37,-121.006,457.197,1349.395,21.49,2.74,-31.58
1766218593685,21.69,6.00,37.82,-111.240,548.994,1333.281,36.49,-1.44,-35.33
1766218593694,25.75,5.92,36.35,-110.264,642.256,1323.516,69.68,-6.44,-32.89
1766218593704,30.91,5.68,34.79,-139.561,679.854,1387.480,109.43,-15.57,-29.33
1766218593714,36.18,4.68,33.04,-117.588,685.713,1442.168,137.43,-29.44,-21.51
1766218593724,40.43,3.99,31.02,-155.674,590.010,1364.043,148.55,-38.57,-17.89
1766218593734,43.52,3.80,28.18,-137.607,406.904,1290.312,168.43,-44.07,-30.45
1766218593744,48.57,4.71,24.62,-202.061,324.385,1152.617,229.05,-51.94,-42.33
1766218593754,58.59,6.12,20.42,-266.025,420.088,1181.914,334.18,-61.38,-48.83
1766218593764,72.72,7.21,15.17,-227.451,447.432,1120.391,444.24,-78.44,-46.45
1766218593774,93.36,8.66,8.79,-210.850,501.631,983.672,592.49,-96.32,-34.20
1766218593784,121.01,12.34,1.44,-253.330,524.580,837.676,753.36,-108.57,-17.39
1766218593794,155.49,19.66,-6.77,-254.795,543.623,668.242,916.99,-122.94,3.55
1766218593804,-164.88,32.13,-13.85,-305.576,555.342,520.781,1059.61,-124.13,30.42
1766218593814,-118.61,49.59,-16.21,-340.244,473.799,475.371,1202.74,-112.00,65.49
1766218593824,-50.92,64.75,1.05,-299.229,294.111,577.422,1309.24,-76.32,101.05
1766218593834,34.37,59.47,27.96,-354.404,78.291,1151.152,1324.24,-54.57,133.55
1766218593844,88.62,48.30,15.03,-283.115,-195.635,1832.305,1244.86,-55.19,128.30
1766218593854,125.14,50.80,-3.55,-429.600,-944.170,2196.562,1027.55,-42.26,83.11
1766218593864,150.71,61.45,-16.15,-432.041,-1398.760,2413.848,719.55,-50.19,43.92
1766218593874,179.00,73.84,-9.88,-378.818,-1602.373,2094.512,416.05,-39.38,2.61
1766218593884,-115.69,77.24,43.16,-376.865,-1498.369,1564.727,227.80,0.18,-26.95
1766218593894,-77.36,69.36,72.90,-378.818,-1232.744,1298.125,154.49,36.74,-32.70
1766218593904,-60.16,60.92,79.90,-380.283,-1113.115,1380.156,178.12,57.56,-24.64
1766218593914,-47.21,53.46,81.42,-394.443,-1199.053,1703.887,202.12,60.56,-19.33
1766218593924,-37.06,46.18,80.61,-432.529,-1313.311,1945.586,201.80,42.49,-26.70
1766218593934,-29.75,39.16,78.23,-439.365,-1325.029,1937.285,187.99,21.87,-35.89
1766218593944,-23.86,33.03,74.56,-349.033,-1237.627,1755.156,195.93,17.43,-42.76
1766218593954,-16.27,28.34,71.05,-319.736,-1079.424,1721.465,237.12,17.18,-40.14
1766218593964,-8.97,24.87,67.85,-307.529,-996.416,1803.984,239.62,17.00,-31.01
1766218593974,-2.65,22.22,64.93,-274.326,-956.377,1856.719,234.55,17.43,-21.08
1766218593984,1.55,20.45,62.43,-245.518,-986.162,1928.496,207.30,23.68,-8.14
1766218593994,3.08,19.61,60.19,-307.041,-1079.424,2028.105,166.68,28.06,-0.45
1766218594004,2.02,19.02,58.33,-297.764,-1083.330,2092.559,112.61,32.06,4.99
1766218594014,-1.27,18.54,57.06,-254.795,-1055.498,2124.785,54.80,38.56,12.49
1766218594024,-6.34,18.05,56.37,-284.580,-1067.705,2132.109,2.43,34.43,19.86
1766218594034,-13.06,17.73,56.17,-292.881,-1105.791,2085.234,-48.45,34.12,25.67
1766218594044,-19.03,17.63,56.29,-292.881,-1146.807,2067.656,-57.13,36.31,30.05
1766218594054,-24.95,17.46,56.81,-349.033,-1187.334,2133.086,-82.76,27.93,31.92
1766218594064,-30.67,16.96,57.71,-379.795,-1233.721,2092.070,-99.45,14.49,31.30
1766218594074,-35.67,16.07,58.81,-357.334,-1274.248,2030.059,-103.32,4.74,27.17
1766218594084,-40.15,14.93,60.08,-350.986,-1275.225,2092.559,-117.76,-1.75,19.99
1766218594094,-44.90,13.81,61.77,-360.752,-1226.396,2152.129,-150.95,-9.69,16.74
1766218594104,-50.61,12.84,64.05,-353.428,-1160.479,2186.797,-199.63,-17.75,16.67
1766218594115,-57.48,12.12,66.90,-347.080,-1157.549,2166.289,-247.13,-26.13,17.36
1766218594125,-65.02,11.70,70.39,-336.338,-1140.459,2068.633,-286.20,-36.32,17.42
1766218594134,-72.26,11.47,74.57,-337.314,-1137.041,2102.812,-312.07,-47.69,14.43
1766218594144,-79.39,11.33,80.00,-278.232,-1089.189,2107.695,-342.26,-68.25,14.68
1766218594154,-86.53,12.46,86.83,-388.584,-1109.697,2073.027,-364.89,-93.75,18.11
1766218594164,-93.77,14.08,95.39,-530.674,-1269.854,1925.078,-379.64,-125.38,0.74
1766218594175,-99.71,15.88,105.91,-657.139,-1241.533,1723.906,-376.07,-153.13,-31.01
1766218594185,-103.26,17.53,118.17,-615.146,-1097.979,1513.945,-353.57,-170.32,-53.83
1766218594195,-104.85,17.26,129.13,-396.885,-917.803,1302.031,-320.95,-128.19,-72.26
1766218594205,-104.13,17.06,138.85,-480.381,-758.135,1446.562,-274.39,-98.75,-83.82
1766218594215,-99.56,17.66,148.84,-563.877,-543.779,1684.355,-202.76,-104.32,-75.82
1766218594225,-87.70,20.44,165.73,-534.092,-478.350,1757.109,-111.32,-233.44,0.61
1766218594235,-75.37,19.44,-179.21,-501.865,-747.393,1269.805,-50.70,-211.82,-0.20
1766218594245,-58.54,17.61,-165.28,-651.279,-496.904,1412.871,60.74,-198.94,22.99
1766218594254,-37.52,10.89,-150.50,-755.771,-638.506,1436.797,221.49,-277.51,64.18
1766218594265,-18.17,1.53,-140.75,-698.154,-882.158,1415.312,353.86,-284.19,82.05
1766218594274,-1.28,-8.13,-134.40,-830.967,-1101.885,1515.410,440.18,-300.32,94.18
1766218594285,15.24,-17.23,-130.39,-852.451,-1013.506,1545.684,504.99,-302.69,109.11
1766218594295,31.96,-26.02,-127.73,-789.463,-596.025,1743.926,526.74,-300.01,148.68
1766218594305,42.76,-35.65,-124.22,-790.439,-286.455,2075.957,427.61,-290.19,215.80
1766218594315,38.86,-45.14,-114.81,-757.236,-392.900,1980.742,210.43,-238.07,275.30
1766218594324,15.31,-48.85,-95.57,-821.689,-717.119,1286.895,-62.63,-150.19,288.24
1766218594335,-14.61,-41.28,-74.09,-924.229,-818.682,694.609,-212.88,-46.26,290.55
1766218594344,-37.15,-23.42,-61.90,-1048.252,-967.607,628.203,-262.26,37.31,289.74
1766218594354,-52.40,-1.51,-58.79,-1174.717,-1196.123,888.457,-268.01,98.18,270.67
1766218594364,-54.66,2.42,-59.69,566.494,-1496.416,1388.457,-70.39,100.06,105.99
1766218594374,-46.25,8.52,-64.18,-669.834,-1744.463,2001.738,124.99,120.68,3.74
1766218594384,-40.35,14.82,-67.34,-813.877,-817.217,2347.930,25.36,115.43,4.11
1766218594394,-41.06,19.01,-68.04,-798.740,-710.283,2157.988,-99.57,70.56,13.80
1766218594404,-44.27,24.17,-68.71,-852.451,-711.260,1544.219,-123.89,72.87,25.67
1766218594414,-43.93,27.63,-68.98,-655.186,-762.041,1490.508,-55.76,80.81,32.24
1766218594424,-41.65,30.29,-69.59,-727.451,-909.014,1672.148,-3.51,87.12,27.49
1766218594434,-38.45,32.15,-70.06,-789.463,-929.033,1778.105,20.86,81.25,21.67
1766218594444,-35.28,32.63,-70.22,-689.365,-914.385,1865.508,22.99,73.12,19.11
1766218594454,-33.64,32.29,-70.17,-643.467,-931.475,1940.703,-1.82,63.43,18.80
1766218594464,-33.75,32.29,-70.11,-710.361,-901.201,1845.488,-30.45,57.68,18.55
1766218594474,-35.03,33.05,-70.56,-933.506,-940.264,1873.809,-46.76,56.74,10.05
1766218594484,-35.73,33.58,-70.84,-1004.307,-925.127,1731.719,-35.01,42.31,5.11
1766218594494,-34.56,33.52,-71.41,-901.768,-939.775,1608.672,12.18,40.06,1.67
1766218594504,-32.43,32.51,-72.09,-839.756,-972.002,1629.668,38.49,29.81,-3.64
1766218594514,-30.97,31.59,-73.40,-835.850,-994.463,1761.992,33.62,37.93,-10.89
1766218594524,-31.78,30.59,-75.52,-767.979,-998.857,1736.602,1.49,44.06,-20.08
1766218594534,-34.43,30.40,-78.32,-818.760,-974.932,1722.441,-33.51,57.49,-28.45
1766218594544,-37.08,30.44,-81.07,-853.428,-902.178,1719.512,-50.26,61.56,-33.70
1766218594554,-38.45,30.26,-83.32,-795.811,-817.217,1695.586,-45.32,61.43,-33.64
1766218594564,-38.23,29.70,-85.00,-707.920,-764.971,1720.488,-30.70,59.68,-30.08
1766218594574,-36.92,29.00,-86.16,-662.998,-731.279,1780.547,-19.51,56.06,-24.45
1766218594584,-35.31,28.27,-86.82,-632.725,-709.307,1841.582,-19.14,51.31,-16.83
1766218594594,-33.84,27.71,-86.84,-620.029,-684.404,1874.785,-26.57,45.62,-5.82
1766218594604,-32.80,27.40,-86.29,-660.557,-663.896,1907.012,-38.70,38.18,2.99
1766218594614,-32.00,26.99,-84.95,-671.787,-636.553,1909.453,-50.26,25.75,12.74
1766218594624,-31.02,26.64,-82.55,-698.643,-603.838,1891.387,-55.95,11.12,27.67
1766218594634,-30.11,26.24,-78.95,-736.729,-606.279,1923.125,-65.76,-5.57,45.86
1766218594644,-30.00,25.42,-74.39,-734.287,-650.225,1914.336,-83.39,-24.69,61.17
1766218594655,-31.00,24.51,-69.43,-698.154,-716.143,1858.184,-101.20,-33.13,71.61
1766218594665,-32.73,23.66,-64.16,-682.529,-761.064,1850.859,-117.32,-39.01,77.05
1766218594675,-56.23,20.73,-72.00,-975.010,-8127.275,191.680,-214.01,28.75,-28.83
1766218594685,-57.31,16.50,-68.73,-46.787,-508.135,1782.012,-200.63,-19.50,-17.45
1766218594695,-62.83,23.00,-66.98,-1289.951,-829.424,1630.645,-232.63,13.81,47.17
1766218594704,-66.12,26.40,-63.43,-901.768,-685.381,1849.883,-247.70,11.37,39.42
1766218594714,-70.24,29.69,-59.11,-847.080,-610.674,1689.727,-281.20,10.74,41.86
1766218594724,-74.32,33.01,-53.80,-761.143,-573.564,1640.898,-303.82,13.43,52.61
1766218594734,-78.71,37.37,-48.42,-850.010,-508.623,1556.426,-316.01,26.75,56.80
1766218594744,-82.81,42.00,-42.56,-789.463,-456.865,1498.809,-323.32,42.12,64.80
1766218594755,-92.96,45.17,-40.50,-1148.838,-753.740,1407.988,-359.01,85.43,30.61
1766218594764,-101.51,46.67,-39.08,-631.748,-588.213,1177.520,-342.26,129.68,28.42
1766218594774,-109.04,45.51,-38.54,-435.947,-740.068,1060.820,-313.01,155.74,22.92
1766218594784,-116.38,45.99,-39.87,-468.174,-301.104,1009.062,-293.20,199.31,-2.26
1766218594795,-131.74,49.62,-46.51,-1394.443,-204.424,1024.688,-308.51,206.87,14.18
1766218594805,-143.24,50.91,-51.01,-784.092,-122.393,1084.258,-270.14,243.31,11.18
1766218594815,-152.56,50.60,-53.22,-848.057,-325.029,1212.188,-257.39,253.37,12.68
1766218594825,-159.62,49.25,-53.12,-960.361,-564.775,1065.215,-248.51,252.56,15.43
1766218594835,-169.64,46.81,-55.45,-580.967,-174.150,1017.363,-239.26,301.62,19.42
1766218594844,178.66,45.94,-57.79,-767.002,-6.670,1315.215,-229.20,269.81,21.80
1766218594855,166.88,44.95,-58.45,-647.373,-117.998,1285.430,-238.51,264.12,35.30
1766218594864,149.39,43.67,-60.86,-779.209,154.951,1474.883,-265.07,253.37,59.55
1766218594874,132.28,42.38,-60.45,-794.834,34.834,1350.859,-271.89,258.68,71.74
1766218594884,126.58,35.23,-48.70,-513.096,-130.205,754.180,-187.88,467.68,85.49
1766218594895,120.67,34.17,-41.26,-605.381,-882.158,1875.762,-121.76,287.81,54.74
1766218594904,115.34,33.13,-34.82,-399.814,-285.479,1296.660,-42.82,279.62,48.11
1766218594914,107.01,31.21,-28.98,-324.619,169.600,1079.863,-51.82,275.93,33.11
1766218594924,99.69,30.20,-21.66,-180.088,-18.389,1109.160,-35.95,281.68,23.61
1766218594934,91.96,30.53,-13.80,-228.916,144.697,1019.316,-40.38,280.81,6.55
1766218594944,81.89,27.70,-12.24,68.936,149.092,936.797,-18.89,157.68,22.36
1766218594954,70.12,32.67,-13.92,-245.029,-135.576,906.035,-14.20,97.75,-23.83
1766218594964,57.88,30.92,-19.88,57.705,106.123,1062.285,-1.01,27.93,-31.01
1766218594974,45.76,29.50,-26.61,36.221,12.861,1076.934,-0.07,18.06,-50.95
1766218594984,36.87,25.24,-31.54,122.646,132.490,930.449,-4.70,15.62,-42.58
1766218594994,27.99,23.72,-36.58,-30.674,-4.229,1075.469,-1.26,23.18,-53.39
1766218595004,20.66,24.40,-40.45,57.705,1.143,1127.227,-8.76,94.75,-74.76
1766218595014,30.79,26.50,-37.91,399.990,1573.896,1868.438,108.74,173.12,-51.83
1766218595024,20.88,27.94,-42.06,-325.596,-154.131,1171.660,-29.26,47.81,-29.89
1766218595034,17.56,19.60,-45.13,106.045,155.928,1594.512,16.43,-50.26,-9.20
1766218595044,14.05,16.93,-46.05,-159.092,67.061,1790.801,-3.13,6.99,2.30
1766218595054,8.16,11.97,-48.30,93.838,-136.064,594.023,-0.76,-2.88,-12.76
1766218595064,5.88,8.42,-49.72,55.752,-19.365,1091.094,-1.82,-11.19,-19.26
1766218595074,5.35,6.09,-49.95,-0.889,70.479,905.059,-3.88,-11.32,-2.58
1766218595084,5.00,6.05,-49.50,11.318,33.857,829.375,5.11,30.93,7.99
1766218595094,2.89,2.50,-49.92,169.521,-132.158,1342.559,3.49,-15.94,-2.58
1766218595104,3.40,0.44,-49.94,89.443,59.248,636.504,-0.13,3.68,-0.45
1766218595114,2.38,-0.27,-50.04,45.010,-20.342,940.215,-0.32,-0.50,-2.01
1766218595124,1.83,-0.59,-50.13,41.104,-4.229,952.422,0.30,3.06,-1.95
1766218595134,1.28,-0.95,-50.06,39.639,-12.529,983.184,0.12,0.37,1.17
1766218595144,0.89,-1.34,-50.04,46.963,-8.623,936.797,0.05,0.43,0.30
1766218595154,0.59,-1.59,-50.08,42.568,-10.088,981.230,0.30,-0.07,-1.01
1766218595164,0.41,-1.81,-50.11,42.080,-4.717,944.609,0.18,-0.32,-0.76
1766218595174,0.24,-2.00,-50.11,45.010,-6.670,975.371,0.18,-0.32,0.05
1766218595184,0.16,-2.11,-50.05,43.545,-2.275,997.832,-0.07,-0.13,1.05
1766218595194,0.07,-2.13,-50.07,38.662,-4.229,979.766,-0.07,0.37,-0.45
1766218595204,-0.01,-2.12,-50.09,36.709,-4.229,1002.227,-0.26,-0.00,-0.39
1766218595214,-0.08,-2.18,-50.11,41.104,-5.693,978.789,0.05,0.06,-0.57
1766218595224,-0.17,-2.27,-50.09,44.521,-7.158,959.258,-0.26,0.25,0.36
1766218595234,-0.15,-2.30,-50.85,42.080,-4.229,969.023,-0.01,0.37,-15.64
1766218595244,-0.19,-2.40,-50.83,45.986,-6.182,961.699,0.12,-0.13,0.24
1766218595254,-0.24,-2.39,-50.86,40.127,-7.646,953.887,0.18,0.12,-0.51
1766218595264,-0.27,-2.43,-50.85,42.568,-5.693,993.926,-0.20,-0.50,0.17
1766218595274,-0.30,-2.43,-50.08,41.104,-4.229,974.395,-0.07,-0.25,16.05
1766218595284,-0.30,-2.44,-50.06,41.104,-3.740,977.812,-0.26,-0.25,0.30
1766218595294,-0.30,-2.42,-50.08,39.639,-4.229,1006.133,-0.38,-0.44,-0.45
1766218595304,-0.34,-2.40,-50.11,40.127,-8.623,963.652,0.05,0.18,-0.57
1766218595314,-0.38,-2.43,-49.35,45.010,-6.670,995.879,0.05,0.18,15.68
1766218595324,-0.35,-2.46,-49.35,45.010,-3.740,955.352,-0.01,0.56,0.11
1766218595334,-0.39,-2.48,-49.36,43.545,-8.135,966.582,-0.20,-0.07,-0.14
1766218595344,-0.38,-2.50,-49.39,43.057,-6.182,953.398,0.05,0.18,-0.76
1766218595354,-0.44,-2.48,-48.65,41.104,-8.623,957.793,-0.01,-0.07,15.49
1766218595364,-0.43,-2.47,-48.66,39.639,-7.646,989.531,0.18,-0.50,-0.26
1766218595374,-0.40,-2.50,-48.64,45.010,-4.717,980.254,-0.01,-0.00,0.36
1766218595384,-0.43,-2.45,-48.65,38.174,-8.135,984.648,-0.32,-0.25,-0.20
1766218595394,-0.41,-2.43,-48.65,42.568,-6.182,994.902,0.05,0.31,-0.01
1766218595404,-0.39,-2.44,-48.67,42.080,-3.740,980.254,-0.45,-0.13,-0.39
1766218595414,-0.36,-2.44,-48.67,42.568,-5.205,949.492,0.24,0.50,0.11
1766218595424,-0.43,-2.46,-48.68,43.545,-11.064,984.160,-0.13,-0.00,-0.32
1766218595434,-0.28,-2.40,-48.73,38.174,3.096,943.145,0.18,0.56,-0.89
1766218595444,-0.37,-2.44,-48.87,48.428,-13.018,969.512,0.37,1.18,-2.95
1766218595454,-0.24,-2.39,-48.93,38.174,3.584,996.855,0.05,0.06,-1.08
1766218595464,-0.22,-2.39,-48.92,41.104,-2.764,968.047,-0.07,-0.00,0.11
1766218595474,-0.27,-2.39,-48.91,42.080,-5.693,1001.738,-0.38,0.06,0.30
1766218595484,-0.27,-2.40,-48.93,42.568,-4.229,988.555,-0.13,0.18,-0.51
1766218595494,-0.27,-2.40,-48.95,42.080,-5.693,966.582,0.18,0.37,-0.39
1766218595504,-0.30,-2.43,-48.95,44.033,-6.670,974.883,-0.01,0.25,-0.01
1766218595514,-0.32,-2.46,-48.94,43.057,-6.670,971.953,0.05,-0.25,0.11
1766218595524,-0.34,-2.48,-48.94,44.033,-6.182,944.609,-0.13,0.43,0.11
1766218595534,-0.34,-2.52,-48.95,45.986,-5.205,982.207,-0.20,-0.00,-0.20
1766218595544,-0.35,-2.50,-48.95,40.615,-5.693,970.488,-0.26,-0.07,-0.14
1766218595554,-0.38,-2.51,-48.97,44.033,-9.111,971.953,0.24,0.12,-0.45
1766218595564,-0.38,-2.49,-48.99,42.080,-6.182,1009.551,-0.13,-0.07,-0.32
1766218595574,-0.34,-2.47,-49.02,43.057,-3.252,974.395,-0.20,0.56,-0.51
1766218595584,-0.36,-2.47,-49.02,43.057,-6.670,992.949,-0.13,-0.07,-0.08
1766218595594,-0.32,-2.48,-49.03,42.080,-3.740,964.629,0.12,-0.07,-0.26
1766218595604,-0.36,-2.52,-49.03,45.010,-7.646,961.211,-0.20,-0.07,0.05
1766218595614,-0.36,-2.58,-49.03,46.963,-8.135,967.070,0.49,-0.00,-0.08
1766218595624,-0.39,-2.58,-49.07,42.080,-7.158,956.328,-0.32,-0.44,-0.82
1766218595634,-0.35,-2.55,-49.12,42.080,-3.252,980.742,-0.20,0.06,-0.89
1766218595644,-0.33,-2.55,-49.14,44.033,-4.717,979.766,0.12,0.12,-0.51
1766218595654,-0.30,-2.50,-49.15,39.150,-4.229,1000.273,0.18,-0.32,-0.08
1766218595664,-0.31,-2.47,-49.16,43.545,-5.205,997.344,-0.13,0.56,-0.32
1766218595674,-0.32,-2.49,-49.17,44.521,-7.158,980.254,0.18,0.18,-0.26
1766218595684,-0.30,-2.50,-49.18,43.057,-4.229,962.676,0.05,0.06,-0.20
1766218595694,-0.34,-2.50,-49.17,42.080,-7.646,959.746,-0.07,-0.00,0.30
1766218595704,-0.32,-2.54,-49.17,43.545,-2.764,945.098,-0.26,-0.32,0.05
1766218595714,-0.35,-2.54,-49.16,43.057,-7.646,969.512,-0.07,-0.00,0.11
1766218595724,-0.34,-2.57,-49.16,45.010,-5.693,996.855,0.05,-0.50,-0.01
1766218595734,-0.34,-2.55,-49.16,42.568,-4.717,986.602,-0.32,-0.00,-0.08
1766218595744,-0.34,-2.49,-49.16,41.104,-6.182,1003.691,0.18,0.25,0.05
1766218595754,-0.33,-2.49,-49.15,43.545,-5.693,986.602,0.05,0.25,0.17
1766218595764,-0.34,-2.51,-49.17,44.033,-6.670,960.723,0.12,-0.00,-0.32
1766218595774,-0.36,-2.50,-49.16,43.545,-6.670,958.770,-0.13,0.68,0.24
1766218595784,-0.36,-2.55,-49.15,45.498,-5.693,965.117,-0.01,-0.32,0.11
1766218595794,-0.37,-2.53,-49.15,40.127,-7.158,952.422,0.05,-0.19,0.05
1766218595804,-0.37,-2.57,-49.15,45.010,-6.670,982.207,0.12,-0.38,-0.08
1766218595814,-0.35,-2.57,-49.17,42.080,-4.717,1003.203,-0.01,-0.88,-0.39
1766218595824,-0.32,-2.54,-49.17,41.592,-3.252,983.184,-0.20,-0.07,-0.01
1766218595834,-0.29,-2.46,-49.18,38.662,-3.252,1010.527,-0.07,0.18,-0.01
1766218595844,-0.29,-2.41,-49.17,40.127,-4.717,966.094,-0.01,0.62,0.17
1766218595854,-0.35,-2.45,-49.17,43.057,-9.600,948.516,0.05,-0.13,-0.14
1766218595864,-0.40,-2.44,-49.18,41.104,-9.600,961.211,-0.13,0.25,-0.26
1766218595874,-0.48,-2.51,-49.19,45.498,-13.018,951.934,0.18,-0.13,-0.14
1766218595884,-0.45,-2.54,-49.18,44.521,-6.182,976.348,0.05,-0.25,0.11
1766218595894,-0.44,-2.57,-49.19,45.010,-7.158,1001.738,-0.07,-0.50,-0.20
